timestamp,gryox,gryoy,gryoz,accelx,accely,accelz,x,y,z,w,roll,pitch,yaw
,0.259216,-0.106384,-0.9328,0.226746,0.358673,0.450427,-2.5817,-0.432617,0.604004,0.750488
106818685790,-136.25,-83.125,192.188,0.232117,-0.103271,-0.930298,0.264587,0.347027,0.3868,-2.51878,-0.242188,0.483887,1.0376
106818686581,-108.312,-111,215.562,0.205017,-0.111267,-0.924133,0.302551,0.354353,0.316875,-2.45159,0.20752,0.35498,0.732422
106818707546,-47.1875,-119.125,235.5,0.180969,-0.126953,-0.913757,0.340881,0.375222,0.246666,-2.38042,0.860352,0.197266,0.576172
106818731238,2.6875,-102.312,248.75,0.159668,-0.145386,-0.902649,0.372375,0.398141,0.180958,-2.32251,1.22852,0.288086,0.62793
106818746186,29.375,-91.9375,212.688,0.139465,-0.16571,-0.890015,0.401306,0.422051,0.115508,-2.26969,0.905273,0.414551,0.487305
106818768795,42.5,-97.375,204.875,0.119385,-0.174744,-0.879395,0.426514,0.422383,0.0609492,-2.22539,0.72998,-0.215332,0.208008
106818797667,-5.5,-79,174.375,0.102844,-0.179016,-0.871948,0.44397,0.415435,0.0203956,-2.1954,0.484375,-0.324707,0.408203
106818836253,-15.625,-63.4375,122.625,0.0913086,-0.182556,-0.868103,0.452515,0.41108,-0.00668818,-2.18198,0.185547,-0.207031,0.3125
106818845312,8.8125,-43.6875,61.25,0.083374,-0.175354,-0.869263,0.454712,0.390572,-0.0145238,-2.18062,0.103516,-0.195801,0.366211
106818846073,-36.8125,-12.625,9.5,0.074707,-0.163086,-0.874573,0.4505,0.360368,-0.0162678,-2.19324,0.285156,0.0375977,0.609375
106818866438,-74.5,-0.375,-39.1875,0.0658569,-0.151001,-0.880249,0.445007,0.330489,-0.0184531,-2.20853,0.346191,0.0429688,0.659668
106818880752,-73.875,1.25,-47.25,0.0591431,-0.139526,-0.885498,0.43927,0.303757,-0.0178383,-2.22335,0.249023,0.140625,0.839355
106818895478,-69.0625,3.6875,-46,0.0533447,-0.129761,-0.890015,0.433838,0.28099,-0.017636,-2.23699,0.240234,-0.0195312,0.922363
106818919478,-46.5625,4.1875,-42.4375,0.0510864,-0.126465,-0.893738,0.427368,0.27314,-0.0167791,-2.25183,0.331055,-0.0825195,0.876953
106818942513,-1,11.875,-48.1875,0.0535278,-0.128784,-0.897156,0.41925,0.27961,-0.0119403,-2.26905,0.370117,-0.0595703,0.728516
106818980146,35.9375,24.0625,-58.1875,0.0584717,-0.13269,-0.901306,0.408264,0.291024,-0.00294373,-2.29143,0.387695,-0.103516,0.689941
106818980927,53.3125,32.375,-76.4375,0.0709229,-0.139587,-0.90625,0.392761,0.313897,0.0188998,-2.32074,0.293945,0.0947266,0.805176
106818993807,69,39.6875,-100.25,0.0866699,-0.148071,-0.911072,0.374817,0.341762,0.046943,-2.35288,0.132324,0.436035,0.828613
106819014871,80.6875,49.25,-114.5,0.101501,-0.152161,-0.915833,0.357544,0.360068,0.0771851,-2.38316,0.0571289,0.663086,0.90625
106819037627,52.5625,53.875,-112.062,0.114319,-0.149109,-0.920593,0.342468,0.362835,0.108565,-2.40943,-0.0239258,0.710938,0.867676
106819055329,8.75,58.6875,-103.062,0.125122,-0.143738,-0.924561,0.329956,0.359333,0.136939,-2.4311,0.0258789,0.407715,0.884766
106819078229,-7.125,64.75,-91.0625,0.139038,-0.136475,-0.92865,0.315674,0.353755,0.172933,-2.45526,-0.113281,0.265625,1.11816
106819097603,-3.25,74.1875,-100.312,0.15155,-0.133789,-0.933044,0.297729,0.35452,0.204564,-2.48712,-0.614746,0.588867,1.20068
106819115346,17.0625,48.3125,-114.062,0.165405,-0.132324,-0.935669,0.282227,0.358422,0.237052,-2.51255,-0.846191,0.703613,1.07666
106819135117,7.3125,25.75,-90.5,0.175537,-0.12677,-0.937256,0.273376,0.35273,0.262747,-2.52694,-0.73584,0.626465,1.00342
106819157366,-23.25,26.6875,-56.875,0.183411,-0.122314,-0.937866,0.268005,0.348231,0.282198,-2.53496,-0.496582,0.442383,0.93457
106819175308,-13.375,31.625,-37.3125,0.191345,-0.123779,-0.937378,0.263489,0.355677,0.297882,-2.53965,-0.259766,0.280273,0.792969
106819194882,25.9375,37.5625,-27.25,0.200928,-0.131714,-0.935608,0.258667,0.377177,0.312921,-2.54193,-0.0429688,0.181152,0.64502
106819217466,68.25,49.25,-24.0625,0.214661,-0.145752,-0.932495,0.251343,0.413516,0.333204,-2.54455,0.105469,0.177246,0.503906
106819256167,106.938,55.3125,-30.375,0.231201,-0.164368,-0.928101,0.24115,0.460858,0.357444,-2.54846,0.223633,0.185059,0.455078
106819265310,140.188,64.625,-41.8125,0.25116,-0.186157,-0.922119,0.227905,0.517335,0.388009,-2.5531,0.20752,0.36084,0.456543
106819277672,165.562,77.4375,-55.875,0.272705,-0.205505,-0.915527,0.21283,0.57081,0.424497,-2.55856,0.00146484,0.49707,0.52832
106819300039,157.062,85.75,-69.5625,0.290649,-0.216553,-0.910706,0.198303,0.6049,0.459507,-2.56717,-0.303711,0.63916,0.65332
106819332711,105.75,72.375,-76.5625,0.302673,-0.224182,-0.907959,0.183899,0.62651,0.486094,-2.5817,-0.51709,0.602539,0.73291
106819353863,77.125,38.875,-75.1875,0.311829,-0.232483,-0.905457,0.169983,0.647112,0.507116,-2.59712,-0.624023,0.60791,0.725098
106819376766,77.1875,19.3125,-64.75,0.322876,-0.238098,-0.9021,0.158997,0.665458,0.531491,-2.60511,-0.781738,0.705566,0.731445
106819382483,57.3125,32.0625,-54.6875,0.333679,-0.232788,-0.901062,0.150208,0.660551,0.56025,-2.61461,-1.19189,0.629883,0.93457
106819405089,4.8125,28.9375,-48.4375,0.341492,-0.218506,-0.903442,0.139648,0.630733,0.589575,-2.63747,-1.7334,0.419434,1.12793
106819420057,-30.9375,-4.5625,-49.9375,0.338074,-0.210754,-0.907654,0.132141,0.604928,0.591985,-2.66272,-2.1543,0.266113,1.21387
106819435047,-33.625,-29.125,-53.1875,0.335571,-0.201843,-0.911255,0.127747,0.579362,0.594401,-2.68101,-2.20801,0.279297,1.1543
106819460343,-44.0625,-18.625,-39.875,0.333069,-0.187988,-0.914795,0.130127,0.54679,0.594935,-2.68754,-2.0542,0.397461,1.12256
106819480112,-82.75,-6.8125,-13.8125,0.329041,-0.168579,-0.919006,0.137024,0.503243,0.592675,-2.68894,-1.85156,0.307129,1.06445
106819494962,-119.25,-20.3125,10.5,0.320068,-0.147705,-0.923767,0.149536,0.456033,0.578971,-2.68258,-1.70703,0.370605,1.00098
106819520312,-143.562,-40.125,39.1875,0.305664,-0.133057,-0.927429,0.1698,0.423523,0.548933,-2.65859,-1.49854,0.527344,0.941895
106819542791,-131.438,-65.0625,93.9375,0.285461,-0.127625,-0.929138,0.197388,0.410227,0.50075,-2.61665,-1.10303,0.563965,0.866211
106819571840,-100.688,-92.3125,153.125,0.259705,-0.127441,-0.929504,0.228882,0.403835,0.43836,-2.56762,-0.541992,0.54834,0.752441
106819586473,-85.125,-116.812,185.125,0.230347,-0.132568,-0.927856,0.26178,0.403495,0.366178,-2.51598,0.0449219,0.523438,0.643066
106819599966,-62.8125,-132.312,202.75,0.201904,-0.142822,-0.923218,0.294189,0.411,0.292941,-2.46318,0.557617,0.339844,0.383301
106819622500,-30.4375,-126,209,0.177307,-0.156616,-0.9151,0.326538,0.425476,0.224096,-2.4075,0.992676,0.203125,0.230957
106819637550,-1.3125,-101.5,213.438,0.157471,-0.168152,-0.906982,0.352539,0.435633,0.167874,-2.36289,1.4165,-0.0859375,0.0805664
106819659974,5.625,-72.3125,171.312,0.144592,-0.176697,-0.90094,0.369019,0.443105,0.130499,-2.33466,1.22021,-0.424805,0.164551
106819682446,16.75,-43.4375,110.062,0.134827,-0.187378,-0.896729,0.377747,0.45574,0.100412,-2.32099,0.77832,-0.542969,0.147949
106819697568,68.75,-11.375,53.625,0.137207,-0.199585,-0.894958,0.374634,0.480457,0.0961949,-2.3251,0.578613,-0.336914,0.140625
106819721490,97.125,19.8125,-20.6875,0.145081,-0.209167,-0.89624,0.363342,0.504285,0.108267,-2.34341,0.53418,0.122559,0.256836
106819737861,74.875,40.0625,-80.5625,0.156311,-0.206787,-0.901794,0.345886,0.507271,0.139322,-2.37298,0.476562,0.408691,0.349609
106819760363,15.9375,45.1875,-121.375,0.165527,-0.194641,-0.909546,0.32782,0.488972,0.174377,-2.40615,0.458984,0.428711,0.393555
106819780055,-40.8125,51.375,-135.625,0.176636,-0.180237,-0.91687,0.309448,0.466862,0.213985,-2.4396,0.493164,0.246094,0.513184
106819796502,-44.625,66.6875,-140.5,0.191345,-0.171692,-0.922363,0.288513,0.457384,0.256719,-2.47528,0.374512,0.412598,0.732422
106819825099,-3.8125,74,-148.125,0.206665,-0.170471,-0.926697,0.263672,0.460565,0.297504,-2.51699,-0.027832,0.637207,0.874023
106819872783,38.875,58.1875,-158.062,0.220703,-0.175171,-0.929077,0.239807,0.473811,0.33216,-2.55556,-0.26416,0.678711,0.775391
106819875045,67.8125,41.8125,-140.375,0.235474,-0.186584,-0.928162,0.219604,0.501972,0.363091,-2.58285,-0.194336,0.658203,0.703613
106819880434,103.812,45.5,-109,0.25061,-0.199768,-0.926086,0.199097,0.533965,0.394804,-2.60876,-0.220703,0.686523,0.865723
106819901419,116.625,47.5,-107.625,0.260315,-0.212646,-0.925171,0.176331,0.559991,0.418816,-2.64287,-0.584473,0.790527,0.953613
106819917843,110.625,11.0625,-113.312,0.265381,-0.229614,-0.923523,0.155029,0.591599,0.432318,-2.67538,-0.635742,0.69043,0.757324
106819940315,126.562,-16.625,-91.5625,0.273376,-0.251282,-0.918274,0.137512,0.637725,0.447774,-2.69425,-0.404785,0.772461,0.525879
106819960778,150.375,6.9375,-67.625,0.285461,-0.268433,-0.911682,0.123779,0.679815,0.471303,-2.70231,-0.494629,0.769531,0.664551
106819977113,127.938,39.9375,-58.9375,0.296814,-0.280029,-0.906433,0.109192,0.709305,0.497159,-2.71443,-1.02637,0.806641,0.776855
106820013788,93.8125,14.875,-56.9375,0.29895,-0.294373,-0.90271,0.095459,0.737391,0.504683,-2.73232,-1.146,0.67334,0.773926
106820020704,105.188,-20.1875,-42.25,0.301392,-0.311401,-0.8974,0.083252,0.772996,0.511044,-2.74481,-0.931152,0.746582,0.586426
106820037130,117.438,-13.625,-31.8125,0.307312,-0.326965,-0.890503,0.0757446,0.811144,0.521052,-2.74402,-0.708008,0.725098,0.538086
106820059603,106.438,19.1875,-17.5,0.316711,-0.335083,-0.88446,0.0717773,0.837595,0.537668,-2.7356,-0.763672,0.64209,0.730957
106820080714,70.75,42.75,-10,0.32373,-0.337402,-0.88147,0.0667725,0.848056,0.553489,-2.73543,-0.983398,0.588379,0.823242
106820097085,43.4375,21.6875,-10.75,0.324646,-0.340759,-0.880432,0.0579834,0.852849,0.561127,-2.74976,-0.962402,0.539551,0.819824
106820119553,51.375,-19.0625,-16.6875,0.323059,-0.34552,-0.879761,0.0482788,0.857982,0.564587,-2.76822,-0.800781,0.522949,0.758789
106820140778,56.5,-30.1875,-20.375,0.322388,-0.350952,-0.878113,0.0429688,0.867792,0.565722,-2.7761,-0.780273,0.532715,0.713379
106820156470,52.125,-15.75,0.5625,0.323853,-0.357239,-0.875183,0.0407104,0.883398,0.567794,-2.77453,-0.849609,0.597656,0.657227
106820179549,49.6875,-0.375,14.1875,0.324829,-0.361389,-0.873169,0.0394287,0.893841,0.568968,-2.77297,-0.87207,0.635742,0.655273
106820200706,34.4375,-2.75,16.125,0.321655,-0.358765,-0.875427,0.0378418,0.883419,0.565714,-2.782,-0.846191,0.541992,0.694824
106820216423,-4.25,-28.375,11.625,0.315308,-0.353821,-0.879883,0.0353394,0.86397,0.558435,-2.79852,-0.688477,0.477539,0.706055
106820239572,-17.3125,-44.375,4,0.31073,-0.351196,-0.882629,0.0335083,0.852376,0.552695,-2.80964,-0.619629,0.530273,0.674805
106820260760,-7.0625,-30.6875,3,0.30896,-0.350037,-0.883728,0.0330811,0.84772,0.550266,-2.81343,-0.633301,0.598633,0.595703
106820276472,-4.625,-14.75,5.6875,0.308167,-0.347351,-0.885071,0.0328369,0.840447,0.549999,-2.81664,-0.645508,0.580566,0.552246
106820301000,-14.5,-12,2.875,0.306641,-0.344055,-0.886963,0.0310669,0.830351,0.549875,-2.82422,-0.628418,0.525391,0.541992
106820320692,-15.125,-19.5,-3.75,0.304626,-0.342957,-0.888184,0.0285034,0.824702,0.548699,-2.83253,-0.559082,0.509277,0.516113
106820343295,-1.75,-21.0625,-5.375,0.303406,-0.343933,-0.888245,0.026001,0.824729,0.548153,-2.83832,-0.523438,0.588867,0.498535
106820359562,6.9375,-14.4375,-7.0625,0.303345,-0.344604,-0.888123,0.0240479,0.825398,0.549476,-2.84197,-0.527344,0.602539,0.498535
106820382088,4.4375,-7.1875,-7.625,0.303406,-0.344421,-0.888184,0.0227661,0.824403,0.550693,-2.84458,-0.550293,0.579102,0.498535
106820403318,-0.375,-6.3125,-4.4375,0.302917,-0.344177,-0.888489,0.0210571,0.822581,0.551286,-2.84878,-0.535645,0.536133,0.528809
106820419578,2.4375,-8.75,-4.1875,0.302429,-0.344849,-0.888428,0.0197144,0.823123,0.551278,-2.85162,-0.524902,0.571289,0.541992
106820442065,6.1875,-6.5625,-3,0.30249,-0.345642,-0.888123,0.0192871,0.824882,0.551498,-2.8519,-0.529785,0.597168,0.546387
106820456455,4.875,-1.5,0.625,0.30249,-0.34613,-0.887878,0.0196533,0.826198,0.551005,-2.85079,-0.544922,0.584473,0.566895
106820479537,3.6875,-0.25,5.125,0.301941,-0.347229,-0.887695,0.0194092,0.828254,0.549879,-2.85126,-0.553711,0.584473,0.59082
106820502042,8.625,-3.9375,4.5625,0.300964,-0.349609,-0.887085,0.0182495,0.832528,0.548258,-2.85313,-0.529297,0.626465,0.562988
106820516424,15.0625,-7,0.6875,0.299866,-0.351929,-0.886536,0.0166626,0.836359,0.546799,-2.85605,-0.493164,0.697754,0.570801
106820539616,12.8125,-7.0625,-5.4375,0.299805,-0.353149,-0.886108,0.0153198,0.83862,0.547435,-2.85803,-0.509766,0.733887,0.555176
106820562096,4.375,-2.5625,-8.5625,0.300659,-0.353516,-0.885681,0.0148315,0.840028,0.5493,-2.85777,-0.522949,0.702148,0.539062
106820576448,-0.125,2.875,-6,0.301819,-0.353455,-0.885315,0.0142212,0.840625,0.551959,-2.85766,-0.519043,0.656738,0.539551
106820599603,-0.75,4.4375,-6.8125,0.302795,-0.354065,-0.884766,0.0133667,0.842575,0.554291,-2.85783,-0.517578,0.646973,0.53418
