timestamp,gryox,gryoy,gryoz,accelx,accely,accelz,x,y,z,w,roll,pitch,yaw
,0.306152,-0.355652,-0.881531,0.052063,0.866754,0.526757,-2.77538,-0.477051,0.713867,0.481445
106839589430,-0.3125,-4.0625,-1.875,0.305725,-0.356873,-0.881165,0.0523071,0.869319,0.525279,-2.77467,-0.46582,0.696777,0.493164
106839610702,1.875,-2.1875,1,0.305359,-0.358643,-0.880554,0.0525513,0.873239,0.523686,-2.77355,-0.452148,0.693359,0.502441
106839626899,6,-0.75,2.0625,0.305237,-0.360229,-0.879944,0.0527954,0.876972,0.522612,-2.77226,-0.448242,0.708008,0.508789
106839648282,5.0625,0.625,0.625,0.305481,-0.361206,-0.879456,0.0529785,0.879596,0.522492,-2.77101,-0.466309,0.696777,0.504883
106839679435,2.1875,1.875,-0.5625,0.30603,-0.361755,-0.879028,0.0531006,0.881481,0.523137,-2.76974,-0.48877,0.687988,0.51709
106839685727,1.5,3,-0.4375,0.30658,-0.362793,-0.878418,0.0533447,0.884588,0.523488,-2.76797,-0.491699,0.686035,0.514648
106839709429,3.875,3,1,0.307068,-0.363953,-0.877747,0.053833,0.888019,0.523449,-2.7657,-0.485352,0.696777,0.51123
106839739429,3.8125,3.5,2.0625,0.307556,-0.364685,-0.877197,0.0545654,0.890524,0.523341,-2.76315,-0.489746,0.683594,0.516602
106839749971,1.875,4.125,3.3125,0.307861,-0.365234,-0.876831,0.0553589,0.892465,0.52296,-2.76089,-0.476074,0.669922,0.521484
106839778248,1.3125,4,3.375,0.308228,-0.366028,-0.876343,0.0560913,0.895018,0.522634,-2.75853,-0.486328,0.68457,0.523438
106839791232,2.625,3.6875,3.6875,0.308533,-0.367126,-0.875671,0.0571289,0.898327,0.521752,-2.75538,-0.48877,0.684082,0.519043
106839805798,4,3.9375,5.8125,0.308777,-0.367981,-0.875183,0.0583496,0.901109,0.520748,-2.75221,-0.487793,0.679688,0.538574
106839838486,3.4375,4.8125,6.75,0.30896,-0.368652,-0.874756,0.0593262,0.903269,0.519893,-2.74963,-0.487305,0.67041,0.554199
106839843374,3.6875,4.6875,5.75,0.309204,-0.369385,-0.874268,0.0603027,0.905628,0.519106,-2.74693,-0.48584,0.675293,0.550781
106839888790,4.0625,4.5,5.4375,0.309387,-0.370239,-0.873779,0.0614014,0.908281,0.518072,-2.74405,-0.494141,0.670898,0.550781
106839889538,4.5625,4.5,7.375,0.309387,-0.370911,-0.873413,0.062561,0.910329,0.516726,-2.74138,-0.48877,0.647461,0.563965
106839919484,5.0625,4.25,8.125,0.309265,-0.371399,-0.873169,0.0636597,0.911791,0.515299,-2.7391,-0.489746,0.638184,0.569824
106839926258,4.4375,3.25,8.0625,0.30896,-0.371338,-0.87323,0.0647583,0.911773,0.513802,-2.7374,-0.491211,0.630859,0.564941
106839948839,1.25,2,7.75,0.308472,-0.370911,-0.873474,0.065918,0.910713,0.512072,-2.73599,-0.496094,0.629883,0.563477
106839971401,-1.1875,0.625,8.4375,0.307678,-0.370605,-0.873779,0.0674438,0.909789,0.509448,-2.73424,-0.489746,0.619141,0.564453
106839987706,-1.25,-0.5,11.0625,0.306458,-0.370483,-0.874146,0.0690918,0.908907,0.505885,-2.73269,-0.472656,0.630371,0.55957
106840010162,-1.5,-1.75,11.75,0.305115,-0.3703,-0.874512,0.0709839,0.90783,0.501889,-2.73079,-0.468262,0.641113,0.558105
106840031268,-2.8125,-2.375,13.1875,0.303284,-0.369446,-0.875366,0.0734253,0.904949,0.496914,-2.72894,-0.460449,0.633301,0.588867
106840047689,-6.6875,-2.9375,15.3125,0.300842,-0.367249,-0.876831,0.0760498,0.898345,0.491237,-2.72805,-0.473145,0.617676,0.638672
106840070220,-12.5,-5.25,16.25,0.297485,-0.364014,-0.879089,0.0790405,0.88867,0.484187,-2.72825,-0.508301,0.596191,0.695312
106840091409,-17.4375,-10.25,20.4375,0.292725,-0.357788,-0.882935,0.0820923,0.870835,0.475935,-2.73146,-0.533203,0.53125,0.839844
106840107043,-27.9375,-15.5,21.25,0.285767,-0.348145,-0.888855,0.0845337,0.843161,0.465814,-2.74006,-0.614258,0.541992,1.01074
106840130296,-43.625,-29,19.5,0.276428,-0.337036,-0.895874,0.0864258,0.810303,0.452297,-2.75258,-0.695312,0.609375,1.06934
106840151241,-55.5,-47.125,20.1875,0.265076,-0.324829,-0.903442,0.0899048,0.774604,0.434056,-2.76387,-0.723633,0.634277,1.13232
106840167039,-66.9375,-56.8125,30.5,0.252258,-0.305969,-0.913025,0.0959473,0.72484,0.413615,-2.77347,-0.774414,0.547363,1.40967
106840190155,-97.125,-56.8125,39.5,0.238647,-0.287048,-0.921936,0.10376,0.67623,0.390302,-2.77872,-0.946289,0.516113,1.56836
106840218803,-123.938,-61.1875,38.75,0.224976,-0.264587,-0.931335,0.109802,0.620489,0.369287,-2.78731,-1.11865,0.634766,1.67139
106840227056,-143.375,-66.1875,25.0625,0.213989,-0.23761,-0.940369,0.116272,0.558107,0.354587,-2.793,-1.27832,0.811035,1.83398
106840250316,-168.5,-49.9375,16.6875,0.205872,-0.201172,-0.949524,0.124817,0.479137,0.347705,-2.79446,-1.49609,0.923828,2.1123
106840271467,-224.812,-19,6.3125,0.198547,-0.154724,-0.958618,0.133118,0.380695,0.346352,-2.79826,-1.68115,1.13477,2.15283
106840287095,-278.562,-7.75,-7.75,0.188904,-0.102173,-0.966125,0.143188,0.2703,0.342401,-2.80032,-1.56885,1.29297,1.97803
106840310248,-314.5,-12.5,-1.5625,0.179199,-0.0491333,-0.969299,0.161072,0.162869,0.337964,-2.78441,-1.05713,1.30518,1.73828
106840332716,-323.438,-3.25,44.625,0.173523,0.00280762,-0.967102,0.185974,0.0628171,0.343381,-2.75073,-0.484863,1.32129,1.62793
106840347042,-339.125,26.5625,81.625,0.170959,0.0528564,-0.960083,0.215027,-0.0298764,0.358641,-2.70635,-0.0375977,1.37646,1.30859
106840370228,-333.062,52.375,110,0.174194,0.102356,-0.946411,0.252136,-0.114808,0.391239,-2.64368,0.328613,1.05469,0.78418
106840407744,-327.938,90.3125,167.188,0.181274,0.150391,-0.92688,0.292358,-0.191966,0.43783,-2.57337,0.932129,0.421875,0.515137
106840410024,-311.188,121.562,201.875,0.194458,0.182739,-0.907471,0.324463,-0.235161,0.491007,-2.514,1.4375,0.00634766,0.333984
106840443860,-202,140.812,185.125,0.22052,0.193115,-0.89209,0.343811,-0.228867,0.55417,-2.4712,1.32275,-0.168457,0.0786133
106840452742,-41.5,171.562,150.75,0.255859,0.1922,-0.880188,0.350525,-0.197318,0.625065,-2.44756,1.23291,-0.364258,-0.135254
106840473849,58.125,201.938,105,0.296143,0.186462,-0.871704,0.343018,-0.160083,0.699999,-2.45035,0.935059,-0.209473,-0.234863
106840490238,114.875,222,36.1875,0.335022,0.181213,-0.86615,0.323669,-0.135868,0.772133,-2.48169,0.489746,-0.09375,-0.361328
106840512775,131.375,215.812,-33.3125,0.368469,0.183899,-0.860535,0.299866,-0.143553,0.839712,-2.53517,0.322754,-0.133301,-0.446777
106840533864,90.8125,204.188,-76,0.39624,0.194214,-0.854736,0.273376,-0.18674,0.900357,-2.61295,0.254883,-0.326172,-0.385742
106840556332,50.9375,192.312,-108.625,0.417725,0.206543,-0.850159,0.245117,-0.253251,0.946747,-2.71041,-0.0654297,-0.26123,-0.299316
106840573996,35.5625,161.75,-132,0.432129,0.218567,-0.846619,0.220825,-0.325543,0.975936,-2.80519,-0.307129,-0.234863,-0.236816
106840593766,18.3125,117.938,-122.875,0.43927,0.23175,-0.843872,0.203064,-0.39752,0.989034,-2.88566,-0.172852,-0.241699,-0.11084
106840610219,-11.6875,77.5,-103.75,0.438904,0.245667,-0.843567,0.188354,-0.467078,0.98457,-2.95598,-0.0825195,-0.249512,-0.0498047
106840633181,-21.875,28.6875,-93.375,0.433044,0.254517,-0.846924,0.174377,-0.51458,0.965398,-3.00953,-0.155762,-0.259766,0.197266
106840662466,-3.9375,-1.625,-90.0625,0.429565,0.257141,-0.850647,0.1604,-0.541076,0.949815,-3.05214,-0.439453,-0.157227,-0.151855
106840679192,31.8125,-26.9375,-83.375,0.414795,0.257263,-0.859863,0.149719,-0.546163,0.91141,-3.06963,-0.034668,-0.186035,0.354492
106840698791,24.8125,-60.625,-73.1875,0.405701,0.252136,-0.867188,0.140686,-0.536277,0.886053,-3.07922,-0.531738,-0.0283203,-0.0664062
106840713958,52.25,-77.125,-62.875,0.391479,0.237915,-0.878479,0.135803,-0.492898,0.851747,-3.06208,-0.597656,-0.112793,0.295898
106840745263,86.25,-103.438,-22.5,0.376587,0.213745,-0.891113,0.135803,-0.419406,0.817178,-3.02289,-0.556641,-0.0898438,0.42334
106840752779,126.438,-122.625,22.375,0.359924,0.181824,-0.904724,0.137634,-0.328398,0.77724,-2.97511,-0.603516,0.104004,0.577148
106840773767,159.312,-141.938,43.6875,0.342102,0.140015,-0.918457,0.140991,-0.217664,0.731375,-2.92059,-0.59668,0.246094,0.585449
106840790201,205.625,-158,69.75,0.327637,0.0915527,-0.929016,0.145752,-0.0967642,0.688588,-2.86508,-0.456055,0.324219,0.727539
106840812753,237.625,-137.75,95.5625,0.315125,0.0481567,-0.93573,0.151184,0.00647645,0.648892,-2.81907,-0.558594,0.555176,0.945801
106840833763,206.375,-116.188,92.6875,0.299622,0.00976562,-0.940979,0.157104,0.0921057,0.602791,-2.78207,-0.692871,0.515625,1.08545
106840850239,177.25,-127,87.8125,0.287354,-0.0337524,-0.943604,0.161011,0.185491,0.560284,-2.75009,-0.564941,0.611816,0.959961
106840880243,211.062,-109.062,88.75,0.282349,-0.0755615,-0.941956,0.165283,0.276949,0.531633,-2.71836,-0.556152,0.788574,1.14258
106840896151,208.25,-60.0625,89.6875,0.2771,-0.104736,-0.939819,0.170471,0.339664,0.506521,-2.69406,-0.833496,0.746582,1.27588
106840917680,141,-51.75,77.5,0.2677,-0.131104,-0.938782,0.172913,0.390752,0.47494,-2.68162,-0.86377,0.621582,1.35938
106840938766,128.562,-74.625,61.75,0.263367,-0.161865,-0.93512,0.173157,0.453206,0.451708,-2.66954,-0.696777,0.592285,1.21973
106840955193,163.75,-48.875,55.4375,0.263977,-0.187561,-0.930054,0.173828,0.50866,0.439867,-2.65602,-0.726074,0.632324,1.27295
106840977756,142.875,-14.3125,47.6875,0.264648,-0.202698,-0.926331,0.175476,0.542081,0.432527,-2.64522,-0.879883,0.591797,1.31152
106840998803,93.8125,-13.8125,46.3125,0.262512,-0.215332,-0.924011,0.175903,0.567329,0.421767,-2.64072,-0.828125,0.489258,1.33838
106841015301,86.9375,-26.625,41.125,0.261536,-0.233521,-0.919983,0.175415,0.604945,0.410743,-2.63501,-0.718262,0.516602,1.25
106841037744,105.5,-19,32.8125,0.262817,-0.24762,-0.916138,0.174194,0.635534,0.406379,-2.63051,-0.649902,0.604004,1.18457
106841066248,96.75,-4,24.9375,0.263855,-0.256531,-0.913574,0.173157,0.655019,0.404177,-2.62799,-0.615234,0.620605,1.13721
106841075852,66.0625,-1.1875,16.125,0.264221,-0.262268,-0.912109,0.171631,0.667006,0.402773,-2.62838,-0.550293,0.592773,1.05371
106841098419,46.875,-2.75,7.3125,0.264893,-0.267395,-0.910828,0.169739,0.677877,0.402553,-2.62956,-0.503418,0.566406,0.939941
106841118826,42.0625,-1.875,3,0.266602,-0.271301,-0.909363,0.168518,0.687283,0.404367,-2.6287,-0.484863,0.594727,0.892578
106841135218,32.875,5.875,1.6875,0.268677,-0.273376,-0.908142,0.168457,0.693556,0.407036,-2.6259,-0.471191,0.625488,0.856445
106841165273,19.1875,10.75,3,0.270569,-0.274658,-0.907043,0.169189,0.698269,0.409223,-2.62197,-0.451172,0.631348,0.827637
106841180221,12.375,12.4375,4.75,0.272766,-0.274292,-0.906311,0.170227,0.699866,0.41265,-2.61781,-0.456055,0.541016,0.839844
106841194952,7.6875,15.6875,5.75,0.275391,-0.273438,-0.905823,0.170288,0.70049,0.417836,-2.61546,-0.489746,0.530762,0.862305
106841217729,8.5,16,0.3125,0.27832,-0.274658,-0.904602,0.169739,0.705601,0.422781,-2.61294,-0.47168,0.617676,0.780762
106841238776,14.375,14.5,-2.5625,0.28186,-0.275391,-0.903198,0.170288,0.71073,0.428339,-2.60784,-0.443848,0.683594,0.6875
106841262708,4.25,19.25,-1.6875,0.285034,-0.273926,-0.902344,0.171753,0.711159,0.433779,-2.60211,-0.429688,0.65625,0.643555
106841277716,-10.75,19.75,-0.4375,0.287659,-0.271667,-0.902039,0.172852,0.709283,0.439008,-2.59818,-0.399902,0.570312,0.631836
106841298799,-11.8125,17.5625,-2.5,0.2901,-0.269775,-0.901855,0.172424,0.707389,0.444742,-2.5972,-0.368652,0.540039,0.620117
106841315358,-6.9375,15.25,-10.25,0.292358,-0.269104,-0.901672,0.170776,0.707504,0.450382,-2.5985,-0.369141,0.573242,0.579102
106841345281,-2,9.9375,-15.3125,0.294373,-0.269531,-0.901184,0.169373,0.709859,0.454781,-2.59905,-0.372559,0.657227,0.546387
106841358815,-1.6875,7.75,-14.0625,0.295776,-0.270264,-0.900391,0.169678,0.712944,0.456616,-2.59646,-0.369629,0.706543,0.530273
106841375212,-5.8125,7.1875,-5.4375,0.296326,-0.26947,-0.900146,0.171204,0.712398,0.45694,-2.59308,-0.371094,0.655762,0.57373
106841397742,-13.5,6.625,1.0625,0.296448,-0.269409,-0.899902,0.172546,0.712958,0.456241,-2.59029,-0.384766,0.625,0.598633
106841418822,-7.5,3.25,3.25,0.296265,-0.271545,-0.89917,0.173401,0.717756,0.454054,-2.58778,-0.376953,0.657227,0.62207
106841435240,5.25,0.75,4.4375,0.296021,-0.275391,-0.897766,0.174805,0.726381,0.4503,-2.58334,-0.357422,0.722656,0.634766
106841457753,11.5625,2.0625,8.3125,0.295715,-0.278442,-0.896545,0.176941,0.733541,0.446386,-2.57802,-0.365234,0.736328,0.657715
106841478768,6.9375,3.5625,10.8125,0.295227,-0.280029,-0.895813,0.178955,0.737265,0.443066,-2.57376,-0.37793,0.705078,0.692871
106841495188,1.75,3.25,9.375,0.2948,-0.281189,-0.895325,0.180115,0.739768,0.44072,-2.5713,-0.386719,0.658203,0.700195
106841517751,3.5625,2.4375,6,0.294983,-0.282959,-0.894592,0.180786,0.744042,0.43948,-2.56899,-0.402832,0.630859,0.703125
106841538797,10.0625,3.5625,5.125,0.295654,-0.284485,-0.893738,0.181335,0.748217,0.439294,-2.56638,-0.423828,0.62207,0.709961
106841555212,10.8125,5.6875,4.875,0.296448,-0.284851,-0.893311,0.181824,0.750037,0.440127,-2.56443,-0.463867,0.614258,0.699219
106841577733,4,4.5,4.1875,0.29657,-0.284424,-0.89325,0.182434,0.749463,0.440116,-2.56319,-0.458008,0.608887,0.679199
106841598779,-1.75,1.1875,3.5625,0.296753,-0.284302,-0.893066,0.183167,0.749668,0.439947,-2.56153,-0.426758,0.620605,0.628418
106841622800,-3.125,1.625,3.5,0.296936,-0.283936,-0.893005,0.183899,0.749367,0.439956,-2.56006,-0.418945,0.621582,0.606445
106841637827,-5.5625,1.3125,2.375,0.29718,-0.283508,-0.892944,0.184326,0.748853,0.440304,-2.55906,-0.422852,0.637207,0.597656
