timestamp,gryox,gryoy,gryoz,accelx,accely,accelz,x,y,z,w,roll,pitch,yaw
,-0.442566,-0.0420532,0.128601,-0.886536,0.907484,0.189525,-0.195517,-0.16748,0.750488,0.589844
97652802713,4.5,-1,0.8125,-0.443237,-0.041748,0.128662,-0.886169,0.908986,0.189174,-0.195741,-0.179199,0.758789,0.586426
97652824701,4.375,-0.875,0.0625,-0.443848,-0.0418091,0.128662,-0.885864,0.910361,0.189418,-0.19556,-0.185059,0.758301,0.587402
97652864013,3.875,0.5625,0.0625,-0.444275,-0.0419312,0.128662,-0.885681,0.91134,0.189734,-0.195373,-0.191406,0.754883,0.59375
97652866119,2.875,0.75,0.125,-0.444702,-0.0421143,0.12854,-0.885437,0.912289,0.190045,-0.194889,-0.187012,0.754883,0.585449
97652900427,2.6875,1.5625,0.0625,-0.445129,-0.0425415,0.128418,-0.885254,0.913268,0.190801,-0.194212,-0.187012,0.750977,0.576172
97652901179,1.875,2.5,-0.125,-0.445496,-0.0429688,0.128174,-0.885071,0.9141,0.19143,-0.193311,-0.187012,0.756348,0.577637
97652923343,1.8125,3.0625,0.0625,-0.446045,-0.043457,0.127869,-0.884827,0.915366,0.192155,-0.192212,-0.194336,0.755859,0.574707
97652953962,2.4375,3.3125,0.5625,-0.446411,-0.0439453,0.127563,-0.884644,0.916203,0.192836,-0.191144,-0.194336,0.751465,0.570312
97652959848,1.5,2.875,0.5625,-0.446777,-0.0443115,0.12738,-0.88446,0.917037,0.193408,-0.190408,-0.194336,0.757324,0.571289
97653014104,1.625,2.1875,0.375,-0.447205,-0.0444946,0.127258,-0.884216,0.917992,0.193716,-0.189922,-0.194336,0.755859,0.568848
97653016216,2,1.25,0.5,-0.447571,-0.0447388,0.127075,-0.884094,0.918863,0.194073,-0.189306,-0.197754,0.745117,0.56543
97653030032,1.875,1.375,1,-0.447754,-0.0449829,0.12677,-0.884033,0.919309,0.194276,-0.188494,-0.192871,0.728027,0.577637
97653040093,1.8125,1.6875,1.6875,-0.448486,-0.0448608,0.126709,-0.883667,0.920974,0.194156,-0.188327,-0.185059,0.755859,0.570312
97653057941,4.5,0.25,0.375,-0.44928,-0.0446777,0.126526,-0.883301,0.922804,0.19383,-0.187979,-0.182617,0.770996,0.555664
97653082620,3.375,0.1875,0.75,-0.449585,-0.0447388,0.126099,-0.883179,0.923537,0.193616,-0.187072,-0.186523,0.763184,0.555176
97653096149,0.625,1.375,1.875,-0.450073,-0.0448608,0.125732,-0.882996,0.924699,0.193609,-0.186193,-0.185547,0.746582,0.561035
97653142289,2.4375,1.6875,1.9375,-0.451111,-0.0449219,0.125305,-0.882507,0.927097,0.193547,-0.185128,-0.185547,0.757812,0.561035
97653147179,5.9375,2.1875,1.8125,-0.452271,-0.0449219,0.124817,-0.882019,0.929814,0.193348,-0.183993,-0.186523,0.772949,0.561035
97653185198,6.3125,2.1875,2.3125,-0.453186,-0.0449829,0.124329,-0.881592,0.931942,0.193201,-0.182843,-0.185547,0.766113,0.551758
97653194798,4.6875,2.1875,1.8125,-0.453918,-0.045166,0.124023,-0.881226,0.933628,0.193399,-0.181958,-0.1875,0.762695,0.557129
97653232962,3.875,2.0625,1.125,-0.454712,-0.0453491,0.12384,-0.880859,0.935464,0.193725,-0.181294,-0.189941,0.770996,0.55957
97653247314,4.3125,1.9375,0.5625,-0.455688,-0.0455322,0.123474,-0.880432,0.937748,0.193921,-0.180258,-0.190918,0.782227,0.557129
97653249628,4.75,2.3125,1.3125,-0.45636,-0.0457153,0.122864,-0.880127,0.939333,0.193822,-0.178828,-0.188477,0.774902,0.564941
97653268955,3.625,2.875,2.375,-0.457092,-0.0458374,0.122375,-0.879822,0.941068,0.193741,-0.177673,-0.191406,0.772461,0.567383
97653284231,4.5625,2.5,2.4375,-0.458008,-0.0459595,0.121887,-0.879395,0.943208,0.193692,-0.176471,-0.191895,0.782715,0.5625
97653321656,5.3125,2.5625,1.9375,-0.458679,-0.0461426,0.121399,-0.879089,0.94479,0.193702,-0.175268,-0.19043,0.792969,0.568359
97653329209,3.625,2.75,2.0625,-0.459229,-0.0463867,0.120911,-0.878845,0.946095,0.193796,-0.174038,-0.190918,0.783203,0.558594
97653344266,2.75,3,1.8125,-0.459717,-0.0467529,0.120544,-0.878662,0.947272,0.194211,-0.172945,-0.192383,0.776367,0.555664
97653374206,2.375,2.8125,0.9375,-0.460144,-0.0470581,0.120361,-0.878418,0.948249,0.194668,-0.172235,-0.186523,0.786133,0.555176
97653388955,2.125,2.3125,-0.125,-0.460571,-0.0473633,0.120239,-0.878235,0.949257,0.195187,-0.171653,-0.189941,0.784668,0.552246
97653413141,1.6875,2.1875,-0.375,-0.460876,-0.0476685,0.120117,-0.878052,0.949953,0.195675,-0.171081,-0.187988,0.778809,0.55127
97653426696,1.375,2,-0.25,-0.461243,-0.0478516,0.120056,-0.877869,0.9508,0.196018,-0.170726,-0.192871,0.786621,0.550781
97653464246,1.5625,1.1875,-0.1875,-0.461548,-0.0480347,0.120239,-0.877686,0.951478,0.196575,-0.170827,-0.201172,0.785156,0.561523
97653466490,2,0.375,-1,-0.46167,-0.0484009,0.120544,-0.877563,0.951714,0.197535,-0.171022,-0.208984,0.791504,0.578613
97653501649,1.5,0.625,-1.75,-0.461914,-0.0488281,0.121033,-0.877319,0.952189,0.198796,-0.171459,-0.249023,0.813965,0.59375
97653509207,2.625,-0.4375,-1.375,-0.462097,-0.0501099,0.122314,-0.876953,0.952411,0.202308,-0.172574,-0.33252,0.799805,0.626465
97653523525,4.5,-1.375,-2.3125,-0.460571,-0.0530396,0.125244,-0.877197,0.948507,0.209959,-0.175608,-0.433594,0.779297,0.724121
97653546675,-0.1875,-1.125,-10.1875,-0.457397,-0.0574341,0.130615,-0.877808,0.940442,0.222141,-0.182229,-0.53418,0.775391,0.821777
97653569244,-5,-3.1875,-21.25,-0.45282,-0.0632935,0.137939,-0.878662,0.928794,0.238402,-0.19164,-0.63623,0.86084,0.896973
97653598984,-13.3125,-5,-32.375,-0.446411,-0.0717773,0.147217,-0.879761,0.912493,0.260674,-0.203157,-0.723145,0.928223,0.911133
97653608168,-28.25,-0.5,-47.8125,-0.435608,-0.0842285,0.157593,-0.882263,0.885766,0.289967,-0.215271,-0.812012,0.90332,0.979492
97653635141,-54.4375,11.0625,-61.8125,-0.420471,-0.100525,0.169861,-0.88562,0.848456,0.326676,-0.230441,-0.930176,0.894531,1.10986
97653650330,-77.5625,20.1875,-80.3125,-0.402283,-0.120117,0.184082,-0.888794,0.803137,0.37001,-0.249908,-1.09033,0.87207,1.18359
97653698070,-94.625,25.9375,-96.6875,-0.382446,-0.137817,0.197998,-0.891968,0.753187,0.408578,-0.273418,-1.24219,0.849121,1.24707
97653702472,-113.875,29.1875,-114.25,-0.360718,-0.157104,0.213501,-0.894226,0.697048,0.450039,-0.30279,-1.25049,0.921387,1.20312
97653712107,-124.812,32.625,-130.25,-0.33667,-0.17749,0.227661,-0.896301,0.634406,0.490949,-0.333386,-1.22607,0.960938,1.09424
97653749858,-141.75,37.75,-130.5,-0.312622,-0.198608,0.237488,-0.898071,0.572014,0.529633,-0.357976,-1.1709,0.801758,1.0542
97653752168,-146.188,50.75,-111,-0.287659,-0.218445,0.245544,-0.899597,0.506772,0.563668,-0.383269,-1.18994,0.790039,1.01367
97653823215,-152.312,46.3125,-101.875,-0.266296,-0.235718,0.250549,-0.900452,0.450642,0.591908,-0.403269,-1.23926,1.05859,0.958496
97653832954,-137.438,42.6875,-82.3125,-0.205078,-0.268921,0.210022,-0.917358,0.32899,0.618159,-0.344238,-0.415527,1.12012,0.453613
97653839974,-167.562,20.8125,80.5625,-0.190796,-0.269897,0.180054,-0.926514,0.316971,0.605088,-0.284251,0.0302734,0.813965,0.245605
97653859712,-143.312,11.3125,137.375,-0.183777,-0.266846,0.144043,-0.935059,0.325691,0.584732,-0.206896,0.501953,0.473145,0.331543
97653884980,-104.5,12.5625,185.438,-0.184875,-0.256226,0.108459,-0.942627,0.350893,0.550547,-0.129114,0.891602,0.224121,0.442871
97653897092,-49.3125,-14,203.25,-0.193298,-0.241821,0.0789185,-0.947632,0.385675,0.510742,-0.0643319,1.25488,0.0351562,0.187988
97653928382,6,-29.875,183.188,-0.200317,-0.229675,0.0510254,-0.951111,0.41383,0.474997,-0.00567378,0.946777,-0.413574,0.196289
97653934722,7.6875,-21.6875,173.5,-0.210754,-0.216003,0.0267944,-0.953064,0.445114,0.43678,0.044129,0.660156,-0.618164,0.144531
97653980672,35.8125,-35.75,162.375,-0.215149,-0.205688,0.0109253,-0.954651,0.458664,0.408706,0.0737859,0.397461,-0.821289,0.0874023
97654028103,16.3125,-32,107.438,-0.200745,-0.2005,0.00384521,-0.958923,0.428691,0.396371,0.0793531,0.0209961,-0.993164,0.191895
97654032674,-30.5625,-18.6875,54.375,-0.16272,-0.203003,0.0166626,-0.965454,0.341626,0.408685,0.036941,-0.0341797,-0.632812,0.446777
97654073038,-53.0625,2.875,-64.9375,-0.145935,-0.204163,0.0299683,-0.96759,0.299792,0.415709,0.00174343,0.119141,-0.499023,0.446289
97654092638,-40.75,9.3125,-82.375,-0.138855,-0.211487,0.0467529,-0.96637,0.277723,0.435355,-0.0348899,0.364258,-0.365234,0.503418
97654109862,-12.0625,35.8125,-106.938,-0.134521,-0.218811,0.0705566,-0.963928,0.257352,0.456511,-0.0860607,0.523926,0.130859,0.72998
97654112165,6.0625,36.5625,-146.562,-0.132874,-0.224976,0.0977783,-0.960327,0.239896,0.475839,-0.144511,0.5,0.446777,0.512207
97654117467,20.875,28.8125,-163.875,-0.123718,-0.231323,0.124207,-0.95697,0.205024,0.493229,-0.20637,0.487305,0.311035,0.445801
97654156729,-20.5625,24.8125,-168.125,-0.113831,-0.239197,0.1521,-0.952271,0.166004,0.512305,-0.273252,0.324707,0.263184,0.626465
97654161012,-21.25,32.6875,-178.25,-0.114868,-0.246033,0.179993,-0.945496,0.149767,0.531233,-0.335462,-0.133301,0.43457,0.839355
97654200239,37.75,34.9375,-164.5,-0.125122,-0.247253,0.206909,-0.938354,0.155281,0.541942,-0.390901,-0.556152,0.587402,0.850098
97654204673,90.25,9.0625,-143.688,-0.14386,-0.242615,0.23053,-0.931335,0.183553,0.544791,-0.433945,-0.575195,0.478516,0.672852
97654334805,139.5,-12,-108.5,-0.169434,-0.234436,0.250793,-0.923828,0.230572,0.544678,-0.465525,-0.521973,0.391602,0.807129
97654337189,178.75,-16.125,-77.5625,-0.192688,-0.227478,0.267578,-0.916321,0.274318,0.546856,-0.490933,-0.820801,0.646484,1.0166
97654387429,157.625,-12.3125,-64.1875,-0.265686,-0.182373,0.281921,-0.903748,0.444532,0.500021,-0.489541,-0.565918,0.402832,1.03125
97654388054,99.5,12.625,27,-0.284546,-0.182312,0.279785,-0.898682,0.487836,0.508542,-0.474544,-1.06885,0.707031,1.1123
97654394317,96.9375,18.25,28.9375,-0.303101,-0.171997,0.276123,-0.895752,0.534342,0.495555,-0.459822,-1.14551,0.652832,0.893066
97654394874,111.25,-22,53.5625,-0.322449,-0.158386,0.269592,-0.893494,0.584471,0.4745,-0.440903,-0.728516,0.65332,0.664551
97654399752,115.875,-29.875,73.5625,-0.340393,-0.149841,0.261597,-0.890686,0.630504,0.46119,-0.418565,-0.52832,0.667969,0.673828
97654432354,93.9375,-4.6875,67.4375,-0.352417,-0.146057,0.250854,-0.889709,0.663168,0.451936,-0.391692,-0.717773,0.698242,0.783691
97654437173,55.75,8.5625,77.4375,-0.361511,-0.1427,0.24115,-0.889282,0.688422,0.442454,-0.36873,-0.848145,0.675293,0.840332
97654476003,44.875,-0.625,77.125,-0.36908,-0.138367,0.232666,-0.88916,0.709589,0.431028,-0.35009,-0.767578,0.63916,0.848633
97654482236,42.5,-6.5,71.375,-0.37677,-0.133728,0.224792,-0.888672,0.730567,0.419245,-0.333218,-0.657227,0.6875,0.820801
97654497189,42.3125,-4.375,63.8125,-0.385315,-0.130554,0.216614,-0.887451,0.753288,0.410044,-0.314685,-0.648926,0.666992,0.76709
97654522486,46.5625,4.5,63.3125,-0.390076,-0.130188,0.209595,-0.887146,0.766737,0.405531,-0.29859,-0.729004,0.640625,0.833984
97654537466,28,8.6875,54.4375,-0.391968,-0.130554,0.204163,-0.887512,0.772955,0.402573,-0.286547,-0.771484,0.61084,0.845703
97654567473,14,3.625,47,-0.393555,-0.129028,0.200439,-0.887939,0.77792,0.397274,-0.279502,-0.682129,0.67627,0.831543
97654579550,12.9375,-7.0625,36.625,-0.397095,-0.126892,0.196106,-0.887634,0.787503,0.390891,-0.27084,-0.553711,0.790527,0.738281
97654612153,15.6875,-2.375,33.5625,-0.399292,-0.126709,0.190979,-0.887756,0.794202,0.38708,-0.259816,-0.472656,0.77002,0.654297
97654618524,2.6875,8.8125,29.6875,-0.397156,-0.128723,0.186707,-0.889343,0.790707,0.386837,-0.250804,-0.450684,0.674805,0.660156
97654647291,-20.125,13.25,20.1875,-0.395386,-0.130676,0.184204,-0.890381,0.787505,0.388031,-0.24518,-0.445801,0.640625,0.653809
97654663574,-14.6875,10.125,11.375,-0.397034,-0.132019,0.1828,-0.889709,0.791783,0.389875,-0.240646,-0.391113,0.685547,0.581055
97654677089,3.1875,9.6875,4.5625,-0.399719,-0.133118,0.181274,-0.888672,0.798531,0.391433,-0.235594,-0.361816,0.735352,0.543457
97654699797,5.625,10.9375,3.125,-0.400452,-0.134521,0.180176,-0.888367,0.800661,0.39338,-0.232022,-0.341309,0.694336,0.57373
