timestamp,gryox,gryoy,gryoz,accelx,accely,accelz,x,y,z,w,roll,pitch,yaw
,0.365356,-0.395935,-0.842102,-0.0264282,0.995932,0.689644,-2.81877,-0.755859,0.61084,0.460449
106730309694,-2.8125,7.9375,0.5,0.36731,-0.395142,-0.841614,-0.0263672,0.996426,0.693332,-2.81623,-0.766113,0.627441,0.463379
106730339698,-0.4375,8.5,0.75,0.368958,-0.39447,-0.841187,-0.0262451,0.996885,0.696361,-2.81391,-0.753418,0.611816,0.483398
106730362686,1.25,8.9375,2.0625,0.370178,-0.393799,-0.840942,-0.0263672,0.996656,0.698884,-2.81278,-0.736328,0.612793,0.512207
106730370859,2.625,7.5625,0.5,0.371033,-0.3927,-0.841064,-0.0272827,0.994388,0.701747,-2.81432,-0.740723,0.594238,0.528809
106730392219,2.6875,3.9375,-2.1875,0.37146,-0.391296,-0.841492,-0.0290527,0.990256,0.704821,-2.81861,-0.751465,0.566895,0.529297
106730407134,2.8125,-1.1875,-4.8125,0.371277,-0.389709,-0.842224,-0.0317383,0.984281,0.707761,-2.82595,-0.744141,0.541016,0.520996
106730430858,3.625,-6.75,-7.5,0.370544,-0.388,-0.843201,-0.0349731,0.976904,0.710253,-2.83543,-0.708008,0.530273,0.509277
106730460336,3.5,-10.875,-10.25,0.36969,-0.386169,-0.844299,-0.0383301,0.968966,0.712677,-2.84555,-0.669922,0.536621,0.483398
106730473168,0.8125,-12.375,-13.25,0.368835,-0.384277,-0.845337,-0.0415039,0.960903,0.714816,-2.85528,-0.641602,0.552246,0.453613
106730490344,-1.4375,-12.5625,-15,0.368103,-0.383118,-0.846069,-0.0444946,0.955105,0.716799,-2.86386,-0.602051,0.578125,0.419922
106730506137,-0.5625,-10.8125,-15.6875,0.367676,-0.382385,-0.846436,-0.0469971,0.951088,0.718651,-2.87046,-0.589844,0.595703,0.395996
106730528404,0.0625,-8.3125,-15.0625,0.367249,-0.382324,-0.846497,-0.0493164,0.948978,0.720099,-2.87602,-0.571289,0.620605,0.390625
106730549671,1.9375,-6.6875,-14.6875,0.36676,-0.382568,-0.846497,-0.0510864,0.947958,0.720833,-2.88025,-0.5625,0.643066,0.382812
106730596460,2,-5.8125,-12.8125,0.366211,-0.38324,-0.846375,-0.0523682,0.948323,0.720875,-2.88314,-0.561035,0.652344,0.375488
106730597063,2.0625,-5.0625,-9.8125,0.365234,-0.384338,-0.846252,-0.0532837,0.949532,0.719647,-2.88548,-0.558594,0.651367,0.384277
106730618501,4.5625,-5.375,-6.1875,0.364075,-0.386169,-0.845886,-0.053772,0.952747,0.717445,-2.88645,-0.552734,0.669922,0.368652
106730624965,6.4375,-5.3125,-3.25,0.362793,-0.388245,-0.845459,-0.053772,0.956749,0.714456,-2.88632,-0.571777,0.697266,0.379883
106730647571,6.4375,-4.5,-0.3125,0.361694,-0.390076,-0.845154,-0.0531006,0.960739,0.711276,-2.88484,-0.585449,0.709473,0.380859
106730671414,3.375,-3,2.3125,0.360962,-0.391541,-0.844849,-0.0519409,0.964446,0.708362,-2.8821,-0.612305,0.716309,0.383301
106730685894,0.8125,-1.0625,4.1875,0.360779,-0.392944,-0.84436,-0.050354,0.968899,0.706042,-2.87772,-0.640625,0.711914,0.370605
106730709127,-0.6875,1.375,6.4375,0.360962,-0.394653,-0.843567,-0.0485229,0.974743,0.704024,-2.87196,-0.651367,0.717285,0.35791
106730731577,0.3125,4,8,0.361511,-0.396606,-0.842529,-0.0465088,0.981805,0.70241,-2.86508,-0.654785,0.731445,0.360352
106730746009,1.8125,6.5625,8.375,0.362427,-0.398132,-0.841553,-0.0444946,0.988192,0.701589,-2.85808,-0.651367,0.721191,0.370117
106730769156,0.625,9,6.6875,0.36377,-0.399353,-0.840454,-0.0426636,0.994175,0.701729,-2.85098,-0.65332,0.713867,0.366211
106730791647,-0.375,10.75,5.0625,0.365417,-0.400208,-0.839417,-0.0407715,0.999636,0.702475,-2.84365,-0.643555,0.707031,0.363281
106730805931,-1.9375,12.5,3.75,0.367432,-0.400757,-0.83844,-0.0388184,1.00486,0.703974,-2.836,-0.62207,0.681641,0.352051
106730829145,-3.5,14.5625,2.5,0.369873,-0.401184,-0.837219,-0.0370483,1.01022,0.706343,-2.82797,-0.615723,0.668945,0.335938
106730851705,-3.0625,16.1875,0.9375,0.372559,-0.401489,-0.835938,-0.0349731,1.0158,0.708841,-2.81897,-0.600098,0.65332,0.32959
106730865988,-4.0625,18.4375,1.6875,0.375427,-0.401489,-0.834778,-0.0327148,1.02101,0.711626,-2.80964,-0.589355,0.635254,0.333496
106730896541,-5.5625,20.6875,1.375,0.378479,-0.401489,-0.833496,-0.0300903,1.02672,0.714293,-2.79916,-0.589844,0.630371,0.333984
106730911684,-5.3125,22.125,3,0.381165,-0.4021,-0.832092,-0.0270996,1.03384,0.715668,-2.78792,-0.583984,0.631348,0.342773
106730932888,-2.5,23.1875,6.625,0.383728,-0.402283,-0.830872,-0.0238037,1.0398,0.716579,-2.77656,-0.581055,0.597656,0.370605
106730949171,-2.875,23.75,8.875,0.385864,-0.402649,-0.829834,-0.0206909,1.04563,0.716924,-2.76626,-0.57959,0.584473,0.402344
106730979189,-0.375,22.9375,10.0625,0.387512,-0.403381,-0.828796,-0.0175171,1.05175,0.716129,-2.75629,-0.595703,0.580566,0.422363
106730992821,2.9375,21.4375,13.5,0.388733,-0.40387,-0.828003,-0.0141602,1.05663,0.714423,-2.74685,-0.649414,0.567383,0.454102
106731009177,2.75,19.375,17.75,0.389648,-0.404053,-0.827515,-0.0109253,1.06017,0.712475,-2.73855,-0.702637,0.535645,0.493164
106731031695,3.625,17.3125,21.6875,0.390564,-0.403137,-0.827637,-0.00805664,1.06064,0.71152,-2.7322,-0.751953,0.526855,0.544434
106731052759,0.5,16.25,19.875,0.391357,-0.401123,-0.828247,-0.0057373,1.05766,0.711386,-2.72806,-0.837402,0.560547,0.625
106731069054,-1.625,14.375,17.875,0.392456,-0.397522,-0.829468,-0.00323486,1.05105,0.712372,-2.7245,-0.956543,0.613281,0.698242
106731091677,-9.5,15.0625,17.5625,0.39447,-0.389709,-0.832214,0.000549316,1.03538,0.715692,-2.72072,-1.0708,0.625,0.797363
106731120445,-32.0625,19.875,16.0625,0.395996,-0.37793,-0.836914,0.0032959,1.00801,0.721269,-2.72371,-1.21436,0.580566,0.875488
106731129149,-50,9.5625,10.25,0.395508,-0.362244,-0.844055,0.00537109,0.966995,0.725847,-2.73541,-1.34326,0.583496,1.03125
106731151708,-67.75,-5.125,6.8125,0.395081,-0.342224,-0.852539,0.00817871,0.91536,0.731579,-2.7496,-1.46289,0.606934,1.0708
106731174102,-95,-10.5,1.625,0.394104,-0.320435,-0.861328,0.0144043,0.861011,0.73377,-2.75892,-1.6084,0.340332,1.07764
106731188461,-130.438,-12.3125,-5.6875,0.391968,-0.291382,-0.872314,0.0230713,0.788756,0.734739,-2.77109,-1.82959,0.145508,1.08643
106731211625,-174.938,-20.5,-4.625,0.388428,-0.256104,-0.884644,0.0315552,0.699998,0.735661,-2.79084,-1.96484,0.102539,0.901855
106731233090,-210.062,-35,-17.1875,0.381287,-0.214294,-0.898315,0.041687,0.59381,0.730396,-2.81596,-2.03223,-0.0532227,0.643066
106731249947,-251,-57.9375,-17.5625,0.364929,-0.16687,-0.914062,0.0587769,0.474185,0.704326,-2.83602,-2.10742,-0.217773,0.592773
106731271677,-305.125,-86.3125,0.5,0.344116,-0.120911,-0.927307,0.0846558,0.367441,0.665854,-2.83125,-2.24268,-0.00439453,0.590332
106731301596,-315.25,-96.6875,54.8125,0.31781,-0.0770874,-0.936646,0.12561,0.277882,0.613808,-2.78641,-2.26855,0.587891,0.319336
106731308500,-333.5,-108.75,145.375,0.280701,-0.0395508,-0.940186,0.189026,0.211825,0.538524,-2.68614,-2.26758,1.23047,0.378418
106731337725,-346.625,-151.062,286.688,0.238647,-0.0180054,-0.931274,0.274841,0.183924,0.449589,-2.52553,-1.51367,1.01172,0.200684
106731352813,-311.938,-193.375,446.188,0.167236,6.10352e-05,-0.912659,0.372925,0.131247,0.310259,-2.34521,0.436523,0.219238,0.0927734
106731368533,-347.938,-312.375,536.875,0.085022,-0.00720215,-0.904175,0.418518,0.0852275,0.148264,-2.26822,11.7065,-1.13721,-0.506836
106731422293,-182.25,-439.438,264.438,0.0595703,-0.0258789,-0.86792,0.492493,0.104101,0.0779932,-2.1053,3.29248,-0.496582,-1.50928
106731424646,1.0625,-156.375,482.375,0.0569458,-0.0391846,-0.84552,0.529419,0.127091,0.054835,-2.01923,1.24121,-2.87842,-0.624512
106731429932,49.3125,-37.6875,251.812,0.0883179,-0.0629883,-0.840515,0.530823,0.20168,0.0816846,-2.00675,-0.147461,-2.74658,-0.206543
106731482121,211.438,81.625,22.5625,0.136353,-0.0858154,-0.855469,0.492249,0.2882,0.14936,-2.07567,-0.0380859,-0.648926,-0.324219
106731489502,279.812,139.125,-235.938,0.177979,-0.107666,-0.870422,0.446228,0.362335,0.215408,-2.15456,0.558594,0.335938,-0.185059
106731498121,247.5,116.688,-275.625,0.213135,-0.112488,-0.885376,0.397583,0.395176,0.292098,-2.23862,1.23145,0.975098,0.228516
106731512308,154.5,117.812,-298.375,0.239807,-0.108093,-0.900513,0.346375,0.396568,0.365073,-2.33314,1.41162,1.41797,0.693848
106731535647,91.625,94.0625,-317.438,0.257996,-0.100586,-0.911499,0.304199,0.382211,0.421499,-2.41468,0.84668,1.14209,0.824707
106731555368,37.3125,86.375,-273.938,0.274048,-0.0838623,-0.919983,0.267456,0.34559,0.477297,-2.49091,-0.254395,0.696777,0.879395
106731585291,-15.625,83,-245.25,0.291199,-0.0787354,-0.924133,0.234619,0.332162,0.525063,-2.55436,-1.13184,0.366699,0.824219
106731601599,47.6875,67.25,-193.5,0.309753,-0.0951538,-0.924072,0.202759,0.36455,0.563186,-2.60308,-1.24854,0.42334,0.969238
106731622887,163.938,53.8125,-147.188,0.324646,-0.125122,-0.92157,0.17218,0.424343,0.588701,-2.64175,-1.17676,0.647461,0.688965
106731639231,227.312,22.875,-113.625,0.335205,-0.155457,-0.917603,0.146729,0.485621,0.605959,-2.66996,-0.976562,0.691406,0.653809
106731653865,216.5,9.0625,-82.3125,0.345032,-0.178711,-0.91272,0.126526,0.534837,0.624401,-2.68975,-0.827148,0.730469,0.663086
106731676663,169.688,20.5625,-67.875,0.353333,-0.193909,-0.908325,0.111816,0.568483,0.641649,-2.70306,-1.00684,0.492188,0.619141
106731697856,117.625,20.5,-49.8125,0.361084,-0.202698,-0.905212,0.0958862,0.586074,0.662188,-2.72391,-1.2959,0.32373,0.790527
106731713438,95.75,-3.25,-46.375,0.364075,-0.215454,-0.902588,0.0801392,0.60847,0.672171,-2.74604,-1.50928,0.467285,0.780762
106731736685,104.062,-13.0625,-50.75,0.36969,-0.227295,-0.898438,0.0673218,0.633881,0.686305,-2.75875,-1.22559,0.672852,0.75293
106731760613,90.375,-3.8125,-37.3125,0.372009,-0.230591,-0.897217,0.0585327,0.637952,0.695216,-2.7731,-0.857422,0.647461,0.876953
106731773515,38,4.0625,-42.3125,0.371338,-0.226501,-0.898987,0.052124,0.622321,0.699772,-2.79221,-0.76709,0.404297,1.00879
106731797408,4.4375,-2.3125,-35.8125,0.368896,-0.22583,-0.900635,0.0427246,0.610962,0.701265,-2.81718,-0.750488,0.247559,0.94873
106731817900,31.875,-18.1875,-34.875,0.368225,-0.232727,-0.899658,0.0297852,0.617547,0.705862,-2.84151,-0.75,0.321777,0.830078
106731833539,75.6875,-14.9375,-42.4375,0.369141,-0.242188,-0.897095,0.0180664,0.633193,0.712275,-2.8588,-0.839844,0.456055,0.794434
106731856687,82.9375,-6.4375,-35.8125,0.370544,-0.247559,-0.895203,0.010376,0.642228,0.718541,-2.86994,-0.962891,0.369141,0.797852
106731877710,56.1875,-4.1875,-16.3125,0.371643,-0.248352,-0.894531,0.00335693,0.639769,0.72512,-2.88408,-0.999512,0.29248,0.801758
106731900268,32.875,-7.9375,-18.0625,0.371765,-0.250244,-0.893982,-0.00476074,0.638277,0.73029,-2.90099,-0.846191,0.307129,0.66748
106731916665,35.625,-14.3125,-25.9375,0.37207,-0.253357,-0.892883,-0.0137329,0.639352,0.736082,-2.91848,-0.744141,0.361816,0.631348
106731939147,41.125,-10.375,-33.75,0.37323,-0.254456,-0.891968,-0.0213623,0.637046,0.743257,-2.93396,-0.76416,0.345703,0.630859
106731960175,28.25,-4.8125,-31.25,0.373718,-0.254578,-0.891479,-0.0293579,0.631121,0.749499,-2.95207,-0.75293,0.312012,0.648926
106731976629,25.125,-8.3125,-33.75,0.373474,-0.256897,-0.890564,-0.0374756,0.630105,0.753863,-2.96908,-0.658691,0.330566,0.594727
106732014272,34.625,-9.4375,-32.25,0.373047,-0.261108,-0.889282,-0.0438232,0.635487,0.75649,-2.98024,-0.60791,0.378418,0.620605
106732016520,40.375,-2.8125,-22.8125,0.373047,-0.264587,-0.888062,-0.0473022,0.641742,0.75819,-2.98481,-0.665527,0.353516,0.651367
106732036688,32.5625,2.5,-7.25,0.372864,-0.267944,-0.886963,-0.0502319,0.648008,0.759214,-2.9884,-0.650879,0.31543,0.618164
106732065162,31.25,1.0625,-3,0.372803,-0.271667,-0.885681,-0.0534668,0.655135,0.760687,-2.99219,-0.697754,0.35498,0.608398
106732080374,32.125,-0.125,-4.625,0.371948,-0.275574,-0.884644,-0.0562744,0.662419,0.760245,-2.99561,-0.690918,0.412109,0.618164
106732096664,30.6875,-3.0625,-3.0625,0.369873,-0.278564,-0.88446,-0.0582886,0.666885,0.757009,-2.99951,-0.657227,0.445801,0.627441
106732119135,22.25,-8.3125,-1.375,0.36731,-0.280762,-0.884644,-0.0606689,0.6685,0.753154,-3.0056,-0.632812,0.453125,0.604492
106732140387,17.8125,-13,-5.125,0.36554,-0.282288,-0.884766,-0.0631104,0.669044,0.751129,-3.01171,-0.640625,0.479004,0.529785
106732156693,10.625,-12.875,-9,0.36438,-0.282898,-0.884827,-0.06604,0.667255,0.750755,-3.01919,-0.645508,0.496582,0.498535
106732179191,5.3125,-12.875,-15.0625,0.363281,-0.28363,-0.884766,-0.0690918,0.665734,0.750536,-3.02673,-0.64209,0.544434,0.465332
106732200485,3.375,-13.625,-17.8125,0.362549,-0.285828,-0.884277,-0.0709229,0.66951,0.750126,-3.02956,-0.636719,0.600586,0.446289
106732216657,5.875,-9.125,-12.1875,0.362366,-0.289246,-0.883179,-0.0715332,0.677967,0.74974,-3.0276,-0.573242,0.645508,0.424316
106732238957,8.4375,-0.75,-8.875,0.362976,-0.292725,-0.881775,-0.0716553,0.687681,0.750599,-3.02357,-0.581055,0.673828,0.437012
106732260024,7.4375,4.9375,-8.25,0.364014,-0.295593,-0.880371,-0.0715332,0.696338,0.752168,-3.01908,-0.629395,0.706543,0.454102
106732284091,3,6.6875,-9.125,0.365051,-0.299133,-0.878784,-0.0708008,0.707334,0.753178,-3.01244,-0.655762,0.723633,0.455078
106732299186,5.5,7.375,-4.3125,0.365845,-0.30365,-0.877014,-0.069397,0.721319,0.753022,-3.00348,-0.664062,0.748535,0.449219
