timestamp,gryox,gryoy,gryoz,accelx,accely,accelz,x,y,z,w,roll,pitch,yaw
,0.367737,-0.361511,-0.856567,-0.0218506,0.910821,0.702046,-2.83783,-0.65625,0.585449,0.472168
106758593584,2,2.9375,2.25,0.367737,-0.361938,-0.856384,-0.0214233,0.912194,0.701489,-2.83651,-0.655273,0.591309,0.482422
106758608121,2.6875,1.875,3.75,0.367493,-0.362366,-0.856323,-0.0209961,0.913273,0.700502,-2.83559,-0.647461,0.595703,0.495605
106758631759,3.125,0.875,4.125,0.367188,-0.362488,-0.856384,-0.020813,0.913312,0.69971,-2.83552,-0.661621,0.59375,0.505371
106758653110,1.6875,-0.1875,3.0625,0.366882,-0.362366,-0.856567,-0.0209351,0.912543,0.699312,-2.83635,-0.658691,0.577148,0.503906
106758668075,1.875,-1.0625,1.6875,0.366638,-0.362427,-0.856628,-0.0213623,0.912141,0.699232,-2.83755,-0.658691,0.594238,0.490723
106758690600,2.375,-1.625,-0.375,0.366638,-0.362488,-0.856628,-0.0216064,0.912173,0.699467,-2.83805,-0.655273,0.612305,0.478516
106758706763,1.0625,-0.375,-0.75,0.366943,-0.362427,-0.856506,-0.0216064,0.91238,0.700029,-2.83762,-0.665039,0.612305,0.469238
106758728194,-0.0625,1.1875,-0.5,0.367615,-0.362244,-0.856262,-0.0217285,0.912638,0.701404,-2.837,-0.656738,0.602051,0.465332
106758766266,-0.5,2.875,-1.9375,0.368286,-0.361938,-0.85614,-0.0219727,0.912547,0.703007,-2.83685,-0.646484,0.608398,0.46875
106758767062,-0.6875,3.1875,-3.1875,0.368896,-0.361755,-0.855957,-0.0219727,0.912826,0.70419,-2.8361,-0.637207,0.616699,0.462891
106758781268,-1.375,3.625,-3.125,0.369507,-0.361267,-0.855896,-0.0216064,0.912518,0.705127,-2.83485,-0.63623,0.608887,0.457031
106758819562,-3.75,3.625,-1.3125,0.369873,-0.360596,-0.856018,-0.0213623,0.911353,0.705799,-2.83441,-0.648926,0.589355,0.467773
106758827460,-3.4375,2.375,-0.1875,0.369934,-0.360413,-0.856079,-0.0213623,0.910954,0.705986,-2.8345,-0.632812,0.597168,0.464355
106758853530,-1.25,0.5,-1.125,0.369873,-0.360229,-0.85614,-0.0214844,0.910298,0.706013,-2.83497,-0.617676,0.611328,0.458008
106758875229,-1.5625,-0.1875,-2.8125,0.369995,-0.359802,-0.856262,-0.0216675,0.909214,0.706555,-2.83558,-0.624023,0.611328,0.45459
106758888202,-2.625,0,-3.5,0.370178,-0.359436,-0.856384,-0.0215454,0.90858,0.70695,-2.83546,-0.616699,0.615234,0.444824
106758923527,-3.75,1,-2.5625,0.370483,-0.358948,-0.856445,-0.0209961,0.907999,0.707151,-2.83426,-0.621582,0.609863,0.454102
106758934622,-4.875,2.6875,-0.75,0.37085,-0.358704,-0.856384,-0.0202637,0.908252,0.707212,-2.83236,-0.632324,0.599609,0.44873
106758946212,-3.3125,3.25,1.4375,0.371033,-0.359009,-0.856201,-0.0197144,0.909628,0.706943,-2.83065,-0.635742,0.600586,0.45459
106758960645,0.0625,2.1875,2.25,0.371155,-0.359802,-0.855835,-0.0193481,0.912099,0.706555,-2.82895,-0.635254,0.613281,0.449707
106758984383,2.8125,1.9375,2,0.371521,-0.360474,-0.855408,-0.019104,0.914482,0.706765,-2.82726,-0.64502,0.618652,0.447754
106759005460,2.1875,2.625,0.875,0.371826,-0.360596,-0.855225,-0.0188599,0.915336,0.707047,-2.82615,-0.641113,0.609375,0.460449
106759020413,0.25,2.5625,0.0625,0.372131,-0.360413,-0.855164,-0.0187988,0.915275,0.707607,-2.82572,-0.628906,0.604492,0.459961
106759045869,-1.0625,2.5,-1.8125,0.37262,-0.360168,-0.855042,-0.0188599,0.91521,0.708632,-2.82532,-0.643555,0.613281,0.450195
106759074313,-2.125,2,-2.6875,0.37323,-0.359802,-0.85498,-0.0186768,0.915163,0.709756,-2.82442,-0.639648,0.59375,0.449219
106759095823,-2.3125,3.25,-1.375,0.373718,-0.359497,-0.854858,-0.0184326,0.915109,0.71049,-2.82338,-0.620605,0.575195,0.456543
106759105842,-1.25,4.125,-0.5,0.374207,-0.358948,-0.854858,-0.0181885,0.914424,0.711334,-2.82261,-0.637207,0.563965,0.473145
106759125438,-1.6875,3.8125,-0.125,0.374695,-0.358215,-0.85498,-0.0184326,0.912988,0.712753,-2.82312,-0.684082,0.569336,0.491211
106759148163,-1.3125,1.6875,-1.125,0.375244,-0.35675,-0.855347,-0.0186157,0.909714,0.714461,-2.82407,-0.712891,0.541016,0.522461
106759170641,-3.25,2.0625,-0.375,0.37561,-0.352722,-0.856873,-0.0185547,0.899599,0.716554,-2.82729,-0.793457,0.518555,0.628418
106759186853,-13.75,1.1875,0.1875,0.374817,-0.346069,-0.859924,-0.019043,0.880746,0.717906,-2.83598,-0.874023,0.471191,0.744629
106759200729,-23.3125,-6.8125,-0.75,0.373596,-0.335693,-0.864502,-0.0199585,0.851308,0.719953,-2.84977,-0.963379,0.42627,0.848145
106759222999,-39.1875,-13.125,-5.1875,0.37262,-0.319946,-0.870911,-0.0205688,0.808406,0.723749,-2.8679,-1.10547,0.36377,0.993164
106759248414,-64.0625,-15.125,-8.6875,0.373108,-0.298645,-0.878174,-0.0206909,0.752986,0.731069,-2.88837,-1.37256,0.358887,1.09814
106759263447,-93.3125,-16.1875,-13.125,0.371765,-0.277222,-0.885803,-0.0170288,0.698422,0.731603,-2.90287,-1.5415,0.303711,1.20947
106759283099,-121.812,-20.3125,-15,0.370605,-0.251587,-0.894043,-0.0112915,0.635388,0.731996,-2.91619,-1.5166,0.171875,1.18018
106759320903,-147.938,-18.625,-13.375,0.36969,-0.221069,-0.902527,-0.000915527,0.564628,0.731135,-2.92256,-1.5752,0.0541992,0.999023
106759330894,-184.375,-15.1875,0.625,0.36615,-0.187073,-0.911499,0.0115967,0.485861,0.725022,-2.92873,-1.8457,-0.0874023,0.789062
106759350544,-208,-33.3125,10,0.355774,-0.156738,-0.920959,0.0271606,0.415743,0.703371,-2.92818,-2.03516,-0.323242,0.626953
106759365500,-202.062,-55.5625,28.0625,0.340393,-0.130127,-0.929871,0.050415,0.359874,0.668644,-2.90706,-2.19678,-0.513672,0.497559
106759388155,-198.625,-74.125,80.875,0.319885,-0.105896,-0.937256,0.0899048,0.319865,0.61945,-2.84722,-2.46826,-0.0766602,0.483887
106759410650,-217.688,-87.5,176.625,0.290405,-0.0856323,-0.941589,0.147461,0.2936,0.548761,-2.74771,-2.2793,0.960938,0.101074
106759425666,-232.875,-121.375,288.125,0.255127,-0.0765991,-0.937866,0.222351,0.291146,0.4606,-2.6073,-1.44531,0.779785,-0.0625
106759440600,-212.312,-162.812,411.812,0.202271,-0.0697632,-0.926086,0.31073,0.273574,0.337665,-2.4472,-0.0512695,-0.0415039,-0.134277
106759465843,-229.188,-222.25,506.562,0.137817,-0.0766602,-0.908813,0.386292,0.253133,0.19246,-2.31323,2.91211,-0.302246,0.154785
106759485624,-159.562,-305.75,467.562,0.107849,-0.101868,-0.895813,0.419006,0.278058,0.108069,-2.25149,4.3418,0.26709,-0.151367
106759500571,44.875,-187.25,232.5,0.0883789,-0.11792,-0.870056,0.470459,0.292781,0.0428494,-2.14393,2.52734,-1.54199,-0.688965
106759527306,18.625,-92.9375,348,0.0847778,-0.132629,-0.855774,0.492859,0.315824,0.0143666,-2.09428,0.694824,-1.68311,-0.180664
106759548464,61.9375,-35.25,160.188,0.0967407,-0.140808,-0.855347,0.489136,0.342291,0.0277487,-2.09791,-0.0107422,-1.771,0.0957031
106759561899,75.9375,32.875,-22.25,0.122925,-0.148315,-0.866028,0.461426,0.380523,0.0761129,-2.14785,0.24707,-0.476562,0.153809
106759583099,125.75,83.1875,-184.125,0.151978,-0.157471,-0.877197,0.427368,0.422183,0.132419,-2.20648,0.6875,0.112793,0.311523
106759605595,137.688,94.4375,-221.562,0.181213,-0.162231,-0.887878,0.390564,0.453426,0.196326,-2.26737,1.04492,0.740723,0.407227
106759622220,110.5,110.688,-243.562,0.206848,-0.16571,-0.898682,0.349487,0.47537,0.258834,-2.33679,1.19678,0.918457,0.731445
106759643079,100.625,95.0625,-266.312,0.231384,-0.165344,-0.908813,0.305298,0.485071,0.32532,-2.41229,1.00049,1.3833,1.00146
106759665739,90,72.9375,-272,0.247559,-0.158447,-0.917236,0.268921,0.473468,0.377847,-2.47904,0.231934,0.935547,0.880371
106759689512,25.875,60.0625,-236.312,0.258911,-0.147705,-0.925354,0.234253,0.447479,0.422419,-2.54822,-0.487305,0.873535,0.941406
106759703095,-3.1875,33.3125,-223.312,0.270508,-0.147156,-0.930054,0.200562,0.440747,0.460221,-2.61199,-0.599609,0.650879,0.834961
106759725618,54.9375,24.875,-196.812,0.285034,-0.152222,-0.93042,0.173096,0.449753,0.498041,-2.65756,-0.534668,0.670898,0.941895
106759741894,83.125,48.1875,-153.375,0.294983,-0.155945,-0.930908,0.148743,0.452708,0.52685,-2.70068,-1.08887,0.62207,0.90625
106759763188,66.4375,20.8125,-131.125,0.295532,-0.163574,-0.932861,0.125671,0.45695,0.535496,-2.74645,-1.20605,0.480469,0.824219
106759785442,77.125,-36.5,-109,0.296082,-0.179871,-0.932251,0.104431,0.481617,0.540397,-2.78267,-0.818848,0.358887,0.637207
106759803402,123.688,-32.75,-83.75,0.303528,-0.197876,-0.927979,0.0875854,0.518153,0.557036,-2.80218,-0.610352,0.549805,0.739258
106759823301,131.938,17.75,-65.1875,0.314026,-0.20929,-0.922791,0.0784302,0.54699,0.578455,-2.80553,-0.866699,0.584961,0.836426
106759853641,83.9375,37.25,-34.3125,0.31958,-0.209717,-0.921143,0.0739746,0.549691,0.591649,-2.80994,-1.08154,0.285156,0.989258
106759861853,30.75,11.375,-6.5625,0.319153,-0.21283,-0.921021,0.0678101,0.552737,0.593214,-2.8217,-1.07324,0.0620117,1.0293
106759883039,56.5625,-24.0625,4.625,0.316345,-0.23175,-0.917908,0.0602417,0.589942,0.585756,-2.82776,-0.591309,0.322266,0.822754
106759908411,119.125,-24.8125,0.875,0.319885,-0.246704,-0.913147,0.0546875,0.624545,0.591036,-2.82604,-0.499023,0.604004,0.820312
106759930872,95.4375,23.4375,-11.8125,0.327576,-0.249023,-0.909912,0.0523682,0.635191,0.606565,-2.8216,-1.03418,0.572754,0.945801
106759945859,29.5,31.5625,-5.4375,0.330078,-0.245667,-0.910217,0.0477905,0.626574,0.615546,-2.83152,-1.08545,0.272949,0.981445
106759966922,12,-3.875,-7.8125,0.327576,-0.250122,-0.910278,0.0391846,0.629627,0.614767,-2.84954,-0.822266,0.285645,0.933594
106759983408,56.9375,-26.875,-16.875,0.325989,-0.262207,-0.907776,0.0301514,0.651566,0.613873,-2.86184,-0.628418,0.567871,0.80127
106760005827,85.375,-15.4375,-22.4375,0.327209,-0.272583,-0.90448,0.0252686,0.674565,0.616439,-2.86344,-0.619141,0.650879,0.739746
106760026170,65.6875,5.625,-11.625,0.3302,-0.274719,-0.902771,0.0227661,0.680758,0.623256,-2.864,-0.753418,0.492188,0.783691
106760048641,25.125,13.125,-6.4375,0.331482,-0.273743,-0.90271,0.0183105,0.676734,0.629127,-2.87306,-0.762695,0.334473,0.807129
106760065079,17.625,-0.625,-13.6875,0.331665,-0.275146,-0.902344,0.0112915,0.67588,0.633958,-2.88707,-0.59082,0.368164,0.731934
106760093606,30.875,-5.1875,-28.375,0.333374,-0.276672,-0.901306,0.00543213,0.677325,0.640926,-2.89684,-0.570312,0.457031,0.682129
106760108598,24.8125,5.125,-29,0.335815,-0.274902,-0.90094,0.00286865,0.673387,0.647911,-2.90127,-0.668945,0.412109,0.729004
106760132558,3.75,10.8125,-14.6875,0.336548,-0.272766,-0.901306,0.000671387,0.667287,0.651398,-2.90707,-0.646973,0.37793,0.751953
106760147554,2.25,3.375,-10.1875,0.335999,-0.273376,-0.901367,-0.00341797,0.665633,0.653016,-2.91622,-0.508301,0.458984,0.681152
106760168638,14.0625,-2.4375,-21.375,0.336548,-0.274475,-0.900818,-0.00701904,0.666404,0.6563,-2.92269,-0.504395,0.556641,0.587402
106760208149,9.5,1.25,-23.8125,0.338135,-0.27417,-0.900208,-0.0101318,0.664819,0.661547,-2.9281,-0.550781,0.52832,0.540039
106760210556,0.75,3.9375,-23.25,0.340515,-0.274658,-0.899109,-0.0141602,0.665257,0.668869,-2.93413,-0.570801,0.498047,0.532715
106760221939,8.375,6.5625,-25.9375,0.342712,-0.276306,-0.897705,-0.0184326,0.668259,0.675766,-2.93992,-0.579102,0.566406,0.540039
106760245072,12.8125,6.25,-27.75,0.34436,-0.277405,-0.896667,-0.0231934,0.669074,0.682096,-2.94789,-0.586426,0.617676,0.551758
106760266104,8.5625,2.375,-32.375,0.345337,-0.277893,-0.895996,-0.0280762,0.667631,0.687291,-2.95738,-0.550781,0.591309,0.537598
106760281875,5.9375,-0.875,-33.75,0.346008,-0.278137,-0.895508,-0.03302,0.665238,0.691995,-2.9676,-0.562988,0.555664,0.550293
106760304865,6.3125,-2.4375,-32.1875,0.346375,-0.27948,-0.894775,-0.0372925,0.665837,0.695409,-2.97564,-0.594238,0.581543,0.553223
