timestamp,gryox,gryoy,gryoz,accelx,accely,accelz,x,y,z,w,roll,pitch,yaw
,0.315369,-0.401733,-0.83844,-0.190369,0.858223,0.750207,3.05149,-0.676758,0.552246,0.479004
106574267117,-3.5625,0,1.3125,0.315552,-0.401245,-0.838745,-0.18988,0.857351,0.7501,3.05226,-0.687012,0.541992,0.47168
106574282059,-4.0625,0.5,2.1875,0.315674,-0.400696,-0.838989,-0.189514,0.856116,0.749905,3.05262,-0.703613,0.52832,0.487305
106574313264,-3.0625,0.125,2.625,0.315552,-0.40033,-0.839294,-0.189148,0.855269,0.749298,3.05291,-0.693848,0.538086,0.483398
106574328244,-2.0625,-1,2.9375,0.315369,-0.400146,-0.839539,-0.188782,0.854898,0.748594,3.05333,-0.683105,0.544922,0.483887
106574343241,-1.6875,-0.875,2.5,0.315125,-0.400024,-0.839783,-0.188538,0.854591,0.747915,3.05346,-0.690918,0.547363,0.483398
106574365327,-1,-1.0625,2.4375,0.314941,-0.399902,-0.839905,-0.188599,0.854084,0.747604,3.05298,-0.700195,0.545898,0.494141
106574427876,0.1875,-1.75,1.25,0.314575,-0.399902,-0.839905,-0.188965,0.853528,0.747165,3.05175,-0.710449,0.547852,0.504395
106574429910,1.9375,-2.5,0.375,0.314026,-0.400024,-0.839966,-0.189392,0.853192,0.746488,3.0503,-0.708984,0.540039,0.511719
106574434792,3.375,-3.25,1.25,0.313171,-0.39978,-0.840271,-0.190002,0.851492,0.745332,3.0477,-0.697266,0.52002,0.535645
106574443082,3.25,-4.5625,1.0625,0.312134,-0.399475,-0.840515,-0.191223,0.849052,0.744337,3.04346,-0.70459,0.522461,0.539551
106574462755,4.25,-7,-1.1875,0.310974,-0.399048,-0.84082,-0.192749,0.846003,0.743378,3.03827,-0.708496,0.525879,0.542969
106574484622,4.3125,-8.625,-2.9375,0.309875,-0.398254,-0.841125,-0.194641,0.841675,0.742758,3.03193,-0.70166,0.510254,0.54834
106574499991,3.75,-9.3125,-4.6875,0.308716,-0.397583,-0.841431,-0.196838,0.837521,0.742382,3.02498,-0.686035,0.516602,0.54248
106574546647,4.25,-9.8125,-7.0625,0.307617,-0.396667,-0.841675,-0.19928,0.832496,0.742216,3.01727,-0.683105,0.522949,0.541992
106574547254,2.8125,-10.375,-9.125,0.306641,-0.39563,-0.841919,-0.20166,0.827245,0.742183,3.00971,-0.685547,0.518555,0.530762
106574560247,1.75,-10.4375,-9.4375,0.305725,-0.394653,-0.842102,-0.204163,0.822139,0.742389,3.002,-0.674316,0.519043,0.519531
106574590991,1.8125,-10.6875,-10.625,0.304688,-0.394043,-0.842163,-0.206604,0.818035,0.742341,2.99469,-0.66748,0.537598,0.503906
106574596907,2.4375,-10.9375,-10.9375,0.303711,-0.393555,-0.842224,-0.208801,0.814515,0.742232,2.98815,-0.660645,0.540039,0.498047
106574621545,2,-10.375,-9.75,0.302612,-0.393311,-0.842285,-0.210693,0.811845,0.741653,2.98245,-0.658203,0.548828,0.491211
106574651573,2.1875,-10,-8.6875,0.301697,-0.393005,-0.842285,-0.212463,0.809168,0.741274,2.97715,-0.649902,0.545898,0.483887
106574665255,1.4375,-9.125,-8.3125,0.300903,-0.3927,-0.842285,-0.214172,0.806632,0.741105,2.97211,-0.636719,0.555176,0.476074
106574681519,0.375,-8.375,-9.5,0.300293,-0.392639,-0.842163,-0.215698,0.80502,0.741201,2.96794,-0.640625,0.577148,0.458008
106574704021,-0.5,-7.4375,-9.8125,0.299744,-0.392944,-0.84198,-0.216553,0.804933,0.740887,2.96577,-0.627441,0.595703,0.435059
106574725325,-1.125,-5.8125,-7.75,0.299377,-0.393311,-0.841797,-0.21698,0.80542,0.740573,2.96481,-0.621094,0.584961,0.431641
106574741331,-1.4375,-3.75,-5,0.299011,-0.394287,-0.841553,-0.216858,0.808073,0.739984,2.96579,-0.615234,0.587891,0.428223
106574764111,0.375,-1.5625,-2.4375,0.298645,-0.395508,-0.841248,-0.216125,0.811782,0.738835,2.96841,-0.60791,0.588867,0.435547
106574786552,1.125,0.6875,1.125,0.298401,-0.396729,-0.841064,-0.214966,0.815909,0.737602,2.97213,-0.609375,0.580078,0.443359
106574816538,0.5625,2.5,3.6875,0.29834,-0.398132,-0.84082,-0.213684,0.820768,0.736703,2.97651,-0.623535,0.568848,0.442383
106574824085,1.9375,3.375,5.3125,0.298279,-0.399536,-0.840515,-0.212219,0.825679,0.735549,2.98127,-0.628906,0.565918,0.451172
106574846611,2.25,4.3125,6.4375,0.298401,-0.400818,-0.840271,-0.210632,0.830463,0.734648,2.98637,-0.637695,0.561035,0.464355
106574861590,2.0625,5.8125,7.3125,0.298767,-0.401855,-0.840027,-0.208984,0.834714,0.734085,2.99158,-0.641113,0.56543,0.468262
106574884048,0.5,6.8125,6.9375,0.299255,-0.402588,-0.839966,-0.207153,0.838346,0.733567,2.99701,-0.641113,0.568359,0.476074
106574906599,-1.4375,7.4375,6.875,0.299866,-0.403198,-0.839966,-0.2052,0.841811,0.733168,3.00271,-0.654297,0.572754,0.487793
106574929490,-2.0625,8.125,7.4375,0.300354,-0.403809,-0.839905,-0.203247,0.845133,0.732437,3.00827,-0.668945,0.566406,0.495117
106574950246,-1.125,7.9375,9.0625,0.300903,-0.404297,-0.839966,-0.201172,0.848281,0.731737,3.01404,-0.679199,0.569824,0.512207
106574982913,-1.5,8.3125,9.3125,0.30127,-0.403931,-0.840454,-0.19928,0.848814,0.730708,3.0183,-0.695801,0.57373,0.546875
106574987761,-5.0625,6.6875,8.375,0.301453,-0.402771,-0.841309,-0.197754,0.846786,0.729542,3.02069,-0.709473,0.581543,0.574707
106575010059,-8,3.625,6.625,0.30127,-0.400696,-0.842712,-0.196594,0.841803,0.727917,3.02092,-0.722656,0.557129,0.617676
106575034020,-10.5625,0.75,6.25,0.300903,-0.396057,-0.845032,-0.19635,0.82892,0.726259,3.01623,-0.767578,0.48584,0.709961
106575040886,-17.5,-4.5625,3.5,0.299927,-0.388794,-0.84845,-0.197754,0.80745,0.724441,3.00453,-0.833008,0.514648,0.777832
106575064044,-28.3125,-16,-5.5625,0.298279,-0.380249,-0.852356,-0.200073,0.781611,0.721664,2.98889,-0.858887,0.474121,0.766113
106575086566,-33.625,-26.125,-7.9375,0.297241,-0.368835,-0.857361,-0.20166,0.749082,0.71875,2.97275,-0.858398,0.36377,0.866211
106575107669,-45.8125,-22.875,-5,0.297424,-0.349792,-0.864624,-0.204102,0.696262,0.716974,2.94823,-1.02979,0.206543,1.1543
106575124063,-73.875,-27,-10.75,0.296326,-0.323608,-0.873779,-0.2099,0.622278,0.71246,2.90825,-1.22998,0.0830078,1.34375
106575146587,-98.375,-54.1875,-25.1875,0.29248,-0.300171,-0.882751,-0.212463,0.558853,0.699618,2.8778,-1.14111,0.150879,1.25195
106575167760,-118.062,-66.1875,-28.25,0.292847,-0.270935,-0.893372,-0.206909,0.489213,0.688474,2.8649,-1.22314,-0.0107422,1.22412
106575184072,-168.125,-42.75,-0.8125,0.295044,-0.231873,-0.906372,-0.194092,0.402446,0.674937,2.86259,-1.56348,-0.55957,1.3916
106575206587,-230.25,-40.6875,26.4375,0.293701,-0.185669,-0.92041,-0.179321,0.302173,0.652582,2.85971,-1.64307,-0.583984,1.13867
106575235203,-270.25,-71.75,29.75,0.284119,-0.143738,-0.935242,-0.15509,0.22293,0.613856,2.88386,-1.9541,-0.541504,0.820312
106575244095,-268,-92.9375,82.625,0.272583,-0.102539,-0.950745,-0.106567,0.163373,0.570637,2.96637,-2.56055,-0.362793,0.713867
106575266551,-302.875,-83.875,216.75,0.255676,-0.0639648,-0.964233,-0.0281982,0.125842,0.519759,3.11662,-3.00049,0.911621,0.506348
106575287697,-331.5,-90.9375,386.25,0.226196,-0.0319214,-0.970581,0.0767822,0.107552,0.44913,-2.95914,-2.89014,1.14404,0.493164
106575310279,-330.812,-139.938,548.438,0.164917,-0.0154419,-0.965149,0.202637,0.101901,0.317382,-2.71138,-1.34424,0.32666,0.462402
106575334063,-285.812,-326.438,700.25,0.0872803,-0.0356445,-0.953613,0.285889,0.119449,0.146607,-2.55027,9.32861,-2.83057,-0.930664
106575347783,-56.5625,-437.5,503.188,0.0791016,-0.124512,-0.927307,0.344055,0.289929,0.061063,-2.42213,3.80176,-1.9043,-1.54297
106575364063,451.25,-166.438,409.5,0.0881348,-0.171387,-0.909485,0.368347,0.386441,0.0340614,-2.36529,1.0293,-0.260742,-1.24414
106575386613,268.875,-19.1875,179.312,0.0855103,-0.134033,-0.925232,0.344604,0.312696,0.0659045,-2.41819,1.21631,-1.23877,-0.853027
106575407787,-204.062,34.0625,-173.562,0.104858,-0.104309,-0.942993,0.298157,0.264751,0.135979,-2.51099,1.1123,-0.390137,0.0244141
106575424057,-103,134.938,-316.125,0.143127,-0.112366,-0.950684,0.251343,0.296816,0.217361,-2.59209,1.27246,0.254883,0.663574
106575446619,132.75,184.188,-291.25,0.184509,-0.123291,-0.955994,0.192078,0.327835,0.310376,-2.69333,1.16602,0.875,0.742676
106575467715,164.75,167.312,-349,0.214905,-0.128052,-0.958496,0.136841,0.334735,0.386475,-2.79189,0.493164,0.782227,0.960449
106575483438,110.375,134.062,-329.812,0.238586,-0.129639,-0.958374,0.0883789,0.328572,0.449367,-2.88195,-0.23877,0.668457,1.14209
106575506630,83.125,98.75,-285.5,0.258179,-0.132263,-0.955933,0.0463867,0.321305,0.502174,-2.96158,-0.825195,0.541992,1.01074
106575537992,80.375,75.25,-241.188,0.276855,-0.138977,-0.950745,0.0125122,0.323792,0.55032,-3.02313,-1.07422,0.401367,0.855469
106575551591,93.9375,75.25,-187.125,0.295654,-0.152954,-0.942871,-0.0155029,0.34447,0.597129,-3.06752,-1.06055,0.185059,0.88623
106575572783,130.062,85.9375,-142,0.312805,-0.168884,-0.933716,-0.0427856,0.368577,0.641745,-3.10944,-1.30518,0.0239258,1.01318
106575589100,143.438,78.9375,-130.062,0.324585,-0.19043,-0.923767,-0.0709229,0.403241,0.677303,3.13208,-1.52539,0.30127,0.84668
106575611567,173.125,49,-121.5,0.331726,-0.213379,-0.913818,-0.0973511,0.441297,0.704719,3.09387,-1.28271,0.426758,0.581543
106575632528,176.75,27.9375,-106.875,0.338745,-0.229675,-0.90448,-0.120178,0.465514,0.731491,3.05847,-1.12305,0.351562,0.587402
106575655146,135.5,29.625,-100.125,0.350464,-0.234558,-0.89624,-0.137573,0.465947,0.765278,3.02739,-1.22021,0.345703,0.828613
106575671566,64.75,41.875,-91.25,0.357056,-0.234375,-0.891724,-0.149902,0.455261,0.785327,2.99977,-1.28174,0.166504,0.976562
106575700301,38.8125,16.8125,-56.0625,0.358337,-0.235352,-0.889038,-0.160889,0.447022,0.793599,2.97343,-1.0874,0.0239258,0.844727
106575709105,47.125,-7.875,-35.875,0.357117,-0.237854,-0.887451,-0.168457,0.445708,0.795171,2.95616,-0.930664,-0.103516,0.750488
106575731564,52,-14.875,-8.375,0.354858,-0.240845,-0.886292,-0.175049,0.446562,0.794246,2.94147,-0.93457,-0.125488,0.83252
106575752801,55.8125,-15.0625,1.125,0.350708,-0.247559,-0.884521,-0.182678,0.456132,0.790727,2.92739,-1.01123,0.078125,0.795898
106575769063,70,-27.0625,-2.9375,0.346924,-0.253906,-0.883118,-0.187866,0.467362,0.786874,2.91934,-0.916504,0.28418,0.744629
106575791591,52.5625,-20.5625,-3.4375,0.345215,-0.255432,-0.883423,-0.187744,0.471354,0.783627,2.92055,-0.813477,0.299316,0.723145
106575814052,11.875,-7.75,10.0625,0.343384,-0.255554,-0.884644,-0.185181,0.473939,0.778471,2.92634,-0.747559,0.269531,0.681152
106575828462,-0.75,-7.3125,21,0.341431,-0.25647,-0.885498,-0.183167,0.478001,0.773475,2.93145,-0.704102,0.315918,0.650391
106575865879,2.4375,-7.25,16.5,0.339417,-0.257874,-0.886108,-0.182068,0.482463,0.769005,2.93473,-0.674805,0.413086,0.652832
106575872772,2.875,-6.4375,7.3125,0.337585,-0.258362,-0.886841,-0.181274,0.484197,0.764863,2.93633,-0.658691,0.442383,0.688477
106575889088,-1.6875,-5.0625,2.4375,0.336731,-0.257507,-0.887512,-0.180725,0.482287,0.76257,2.93637,-0.644043,0.410156,0.679688
106575919092,-8,-1.75,-1.625,0.335815,-0.255798,-0.888123,-0.181763,0.476599,0.76077,2.9315,-0.655762,0.367676,0.697266
106575932829,-7.125,-5,-8.9375,0.334595,-0.253418,-0.888855,-0.183838,0.468153,0.758713,2.92324,-0.677246,0.327148,0.711914
106575949091,-6.625,-9.5625,-13.0625,0.332397,-0.250977,-0.889771,-0.186768,0.458659,0.754965,2.91237,-0.657227,0.31543,0.708008
106575979157,-4.25,-15.875,-15.75,0.329834,-0.249451,-0.890625,-0.189148,0.452123,0.750334,2.90372,-0.665039,0.331055,0.674805
106576009092,-1.875,-18.0625,-11.375,0.327393,-0.249084,-0.891418,-0.190308,0.449884,0.745709,2.89945,-0.629883,0.363281,0.626465
106576011452,-1.0625,-15.4375,-5.8125,0.325439,-0.248352,-0.892212,-0.190918,0.447259,0.741713,2.89639,-0.619629,0.372559,0.604004
106576045851,-5.25,-13.5,-4.3125,0.323914,-0.247314,-0.892944,-0.191284,0.444104,0.738377,2.89381,-0.618652,0.387207,0.59082
106576052616,-9.0625,-11.8125,-5.4375,0.32251,-0.247803,-0.893311,-0.191528,0.445078,0.735726,2.89315,-0.647949,0.43457,0.567871
106576068502,-3.6875,-11.5625,-4.125,0.321106,-0.249878,-0.893188,-0.191467,0.450359,0.733271,2.89473,-0.645996,0.442871,0.574219
106576091562,4.4375,-7.9375,-0.25,0.320251,-0.252563,-0.892883,-0.191101,0.457597,0.732089,2.89794,-0.618164,0.417969,0.587891
106576112810,8.125,-1.75,2.375,0.319702,-0.255371,-0.892151,-0.191467,0.464439,0.731835,2.89951,-0.647949,0.426758,0.621582
106576135145,11.1875,0.0625,-1.8125,0.319702,-0.258362,-0.891052,-0.192566,0.471184,0.733194,2.89973,-0.674805,0.42627,0.620117
