timestamp,gryox,gryoy,gryoz,accelx,accely,accelz,x,y,z,w,roll,pitch,yaw
,0.413269,-0.334167,-0.837036,-0.130188,0.804263,0.892833,-3.04859,-0.743164,0.470215,0.39502
106685248070,1.125,-0.1875,-5.875,0.41333,-0.334473,-0.836792,-0.130859,0.804601,0.893517,-3.04975,-0.729492,0.473633,0.400879
106685271879,1.5,-0.5,-5.75,0.41333,-0.334839,-0.836609,-0.131165,0.805428,0.893754,-3.04998,-0.722656,0.484375,0.394531
106685286860,0.875,-0.25,-4.4375,0.41333,-0.33551,-0.836304,-0.131104,0.807536,0.893567,-3.04879,-0.71582,0.481445,0.378906
106685308749,0.8125,0.4375,-2.125,0.41333,-0.335632,-0.836304,-0.131042,0.808005,0.893553,-3.0485,-0.721191,0.474609,0.380371
106685330690,-0.375,-0.0625,0.25,0.413269,-0.336487,-0.836121,-0.130432,0.811225,0.892851,-3.04582,-0.721191,0.484375,0.375488
106685354391,0.125,0.5,1.3125,0.413391,-0.337585,-0.835754,-0.129272,0.815928,0.891903,-3.04107,-0.743652,0.503906,0.374512
106685369382,-0.25,2.375,4.1875,0.413513,-0.338806,-0.835449,-0.127563,0.821576,0.890485,-3.0348,-0.743164,0.514648,0.375488
106685391842,-1.0625,3.75,6.3125,0.413635,-0.340332,-0.835083,-0.12561,0.828415,0.888835,-3.02753,-0.754883,0.520996,0.379395
106685421369,0,4.3125,8.6875,0.413513,-0.341919,-0.834778,-0.123718,0.835023,0.886694,-3.02072,-0.768555,0.519531,0.400879
106685422162,1.6875,4.0625,9.625,0.413452,-0.343384,-0.834412,-0.122131,0.840986,0.884904,-3.01474,-0.778809,0.51123,0.406738
106685444719,2.25,3.5,9.0625,0.413574,-0.344421,-0.834167,-0.120789,0.84568,0.883848,-3.0098,-0.78125,0.496582,0.416504
106685459677,1.375,4.0625,7.3125,0.414062,-0.344971,-0.833801,-0.119934,0.848839,0.883933,-3.0061,-0.794434,0.480469,0.410645
106685483665,0.375,4.375,4.75,0.414978,-0.345215,-0.833313,-0.119324,0.85141,0.885131,-3.00274,-0.809082,0.470215,0.40625
106685512233,-0.125,5,2.6875,0.415833,-0.345276,-0.832947,-0.118774,0.853305,0.886324,-2.99992,-0.80127,0.466309,0.410645
106685523752,-0.75,5.3125,2.25,0.416809,-0.345215,-0.832581,-0.118103,0.855118,0.887659,-2.99676,-0.788574,0.448242,0.416504
106685545437,-0.8125,6.4375,2.8125,0.417664,-0.345215,-0.832275,-0.117432,0.856979,0.888776,-2.99374,-0.769531,0.445801,0.423828
106685596101,-0.3125,7,2.5625,0.418335,-0.345093,-0.832031,-0.116821,0.858105,0.889511,-2.99126,-0.775391,0.428223,0.439453
106685609112,0.1875,6.5,3.875,0.418762,-0.345032,-0.831909,-0.116333,0.858991,0.88992,-2.98944,-0.775391,0.438965,0.441895
106685626441,0.6875,5,3,0.418884,-0.345093,-0.831848,-0.11615,0.85953,0.889983,-2.98869,-0.791504,0.447266,0.453125
106685633313,2,2.8125,2.9375,0.418396,-0.345276,-0.832031,-0.116089,0.859468,0.888937,-2.9891,-0.776367,0.452148,0.469727
106685638179,3.4375,0.8125,3.0625,0.417725,-0.345398,-0.832336,-0.11615,0.85886,0.887682,-2.99022,-0.780273,0.454102,0.474609
106685660538,3.4375,-0.6875,3,0.416931,-0.345825,-0.83252,-0.116394,0.858827,0.886257,-2.99151,-0.805176,0.473145,0.464844
106685684536,4.375,-2.625,2.8125,0.416138,-0.345886,-0.832886,-0.116516,0.8578,0.884807,-2.99304,-0.813477,0.477051,0.475098
106685698243,2.625,-2.5625,2.6875,0.415527,-0.345581,-0.833252,-0.116699,0.855812,0.883771,-2.99489,-0.804199,0.455566,0.470703
106685720534,1.1875,-2.4375,2.0625,0.415222,-0.34491,-0.833618,-0.117188,0.852864,0.883733,-2.99756,-0.801758,0.45459,0.458984
106685743021,-0.6875,-2.1875,-0.75,0.415161,-0.343933,-0.833984,-0.117676,0.849311,0.88422,-3.00027,-0.802734,0.453125,0.450684
106685760892,-2.1875,-1.9375,-2.1875,0.415222,-0.343018,-0.83429,-0.117981,0.846287,0.884771,-3.00225,-0.781738,0.458984,0.435059
106685781995,-3.5,-1.25,-2.375,0.415344,-0.34198,-0.834656,-0.11792,0.843319,0.885121,-3.0034,-0.759766,0.467285,0.42627
106685811975,-5.5,0,-2.5,0.415588,-0.341064,-0.835022,-0.117554,0.841238,0.88551,-3.0035,-0.753906,0.465332,0.410645
106685825650,-6.5625,0.4375,-1,0.415771,-0.340454,-0.835205,-0.117065,0.840057,0.885481,-3.00284,-0.734375,0.46582,0.391113
106685848855,-5.3125,0.5,-0.5625,0.415833,-0.340454,-0.835205,-0.11676,0.840429,0.885314,-3.00198,-0.735352,0.473633,0.385254
106685863195,-2.1875,0.0625,0.1875,0.415894,-0.340393,-0.835266,-0.116394,0.840693,0.885139,-3.00108,-0.745117,0.476074,0.395996
106685885799,-2.5,0.25,0,0.415955,-0.340393,-0.835266,-0.11615,0.841011,0.885038,-3.00038,-0.760254,0.478027,0.393555
106685903486,-1.6875,-0.625,0.375,0.415955,-0.340698,-0.835205,-0.115784,0.842313,0.884675,-2.99905,-0.775879,0.48584,0.380859
106685923280,-1.0625,-1.1875,1.8125,0.416016,-0.341736,-0.834839,-0.115295,0.846069,0.884208,-2.99628,-0.780273,0.495605,0.366211
106685954548,2,-0.375,3.3125,0.416077,-0.343018,-0.834351,-0.114563,0.850767,0.883402,-2.9925,-0.768066,0.501953,0.365234
106685960710,2.9375,1.1875,4.4375,0.416443,-0.343994,-0.833923,-0.113708,0.855118,0.88323,-2.98845,-0.734863,0.49707,0.373047
106685984501,1.0625,3.6875,3.3125,0.416931,-0.345032,-0.833374,-0.112427,0.860171,0.88277,-2.98296,-0.718262,0.550781,0.351562
106686005703,-1.3125,4.875,1.5625,0.417847,-0.346375,-0.832642,-0.110291,0.867608,0.882354,-2.97431,-0.723145,0.589844,0.330078
106686020605,-4.0625,8.4375,3.75,0.418884,-0.347656,-0.83197,-0.107422,0.87573,0.881495,-2.96378,-0.695801,0.562988,0.339355
106686043195,-4.5,11.4375,7.5625,0.419678,-0.349243,-0.831299,-0.104614,0.88438,0.880138,-2.95343,-0.67334,0.556152,0.359375
106686065985,-1.625,12.3125,8.1875,0.42041,-0.350647,-0.830688,-0.101746,0.892388,0.878549,-2.94328,-0.665527,0.564453,0.36084
106686080708,-2.8125,12.4375,7.8125,0.421265,-0.351318,-0.830322,-0.0986938,0.898482,0.877145,-2.93353,-0.692871,0.546875,0.371094
106686103261,-6.0625,12,9.25,0.421997,-0.351746,-0.830139,-0.0956421,0.903652,0.875581,-2.9244,-0.687988,0.508301,0.378906
106686125606,-6.0625,11.5,10.625,0.423035,-0.352234,-0.829773,-0.0921631,0.90982,0.874108,-2.91359,-0.714844,0.52832,0.359863
106686143460,-8,12.5625,12.3125,0.423828,-0.3526,-0.82959,-0.0886841,0.915235,0.872202,-2.90345,-0.756348,0.507324,0.370605
106686163026,-7.5,10.875,15.5625,0.424683,-0.352905,-0.829468,-0.0848999,0.92084,0.870179,-2.89267,-0.75,0.477051,0.397949
106686185728,-6.75,12.8125,18.25,0.42572,-0.352356,-0.829529,-0.0809326,0.924245,0.86845,-2.8822,-0.773438,0.442383,0.436523
106686200667,-9.0625,15,19.625,0.426941,-0.350525,-0.830017,-0.0772705,0.923855,0.867798,-2.8739,-0.826172,0.390625,0.476074
106686223221,-12.75,14.0625,19.6875,0.427612,-0.346741,-0.831482,-0.074646,0.915846,0.86774,-2.87169,-0.923828,0.333008,0.57959
106686268679,-15.875,8.6875,18.125,0.427673,-0.340881,-0.834045,-0.072937,0.899918,0.868133,-2.87562,-1.01611,0.27832,0.661133
106686279721,-21.5,1.875,15.9375,0.42749,-0.332092,-0.83783,-0.0706787,0.875388,0.868362,-2.88253,-1.09814,0.226074,0.732422
106686284587,-35.75,-1.8125,17.375,0.42688,-0.320312,-0.843018,-0.0674438,0.842445,0.86785,-2.89194,-1.26758,0.197754,0.810059
106686314351,-52.4375,-9,22.6875,0.425842,-0.304443,-0.849731,-0.0629272,0.798339,0.866425,-2.90413,-1.44043,0.112305,0.881836
106686320742,-74.1875,-16.875,29,0.421997,-0.289307,-0.857483,-0.0541382,0.757375,0.855708,-2.90869,-1.51416,-0.0722656,0.805176
106686343055,-100.625,-29.4375,28.3125,0.417542,-0.272461,-0.865784,-0.043396,0.713799,0.84301,-2.9105,-1.58838,-0.196777,0.769531
106686365587,-113.562,-33.0625,36.5625,0.411621,-0.2547,-0.874573,-0.0299072,0.669871,0.825991,-2.90736,-1.71436,-0.32373,0.763184
106686380592,-124.312,-39.375,52.75,0.404724,-0.234131,-0.88385,-0.0169067,0.618146,0.808638,-2.90838,-1.87256,-0.305176,0.741211
106686403148,-138.188,-49.5625,45.3125,0.397583,-0.211365,-0.892883,-0.00280762,0.563002,0.791171,-2.90752,-1.94922,-0.106445,0.678223
106686434943,-154,-51.75,43.25,0.389771,-0.186035,-0.901855,0.0151978,0.506002,0.771734,-2.8987,-1.97754,0.0566406,0.617188
106686442672,-178.062,-52.875,55.75,0.37738,-0.159363,-0.911377,0.0393677,0.4491,0.741404,-2.87815,-2.05664,0.251465,0.631348
106686463103,-202.562,-73.0625,87,0.358948,-0.135315,-0.920959,0.0685425,0.4001,0.697891,-2.84575,-2.03564,0.355957,0.539551
106686485698,-203.312,-104,122,0.332153,-0.117493,-0.929504,0.109009,0.369148,0.633365,-2.78589,-1.875,0.77002,0.454102
106686500752,-201.812,-140.812,196.938,0.298279,-0.114441,-0.932434,0.168701,0.375852,0.544088,-2.67758,-1.3252,1.30713,0.295898
106686532037,-168.688,-160.75,329.375,0.253967,-0.104736,-0.928894,0.248291,0.361139,0.433233,-2.53887,-0.240234,0.892578,0.27002
106686545576,-240.875,-172.5,437.312,0.196594,-0.0866089,-0.921082,0.324768,0.306481,0.310887,-2.41524,1.74756,0.273926,0.10498
106686568261,-286.188,-223.5,428.375,0.144958,-0.0800171,-0.916687,0.363708,0.260703,0.209077,-2.35867,6.2207,-0.31543,0.00537109
106686583212,-172.875,-236.562,232,0.117859,-0.0823364,-0.894043,0.424255,0.252391,0.141349,-2.23747,1.9668,-0.0810547,-0.20752
106686605749,-84.375,-100.938,380.625,0.104248,-0.0901489,-0.87677,0.460815,0.258293,0.0998851,-2.16086,1.48779,-2.21973,0.074707
106686622029,-9.875,-59.875,241.125,0.11792,-0.122803,-0.867493,0.467407,0.330595,0.0899127,-2.13817,0.164062,-2.40186,-0.117188
106686643274,201.188,-8.625,70.0625,0.147827,-0.157959,-0.869751,0.443604,0.42106,0.117272,-2.17327,-0.0541992,-0.987305,-0.0117188
106686666369,284.875,34.9375,-119.812,0.175537,-0.183472,-0.877197,0.407471,0.490292,0.159113,-2.23198,0.337891,0.0244141,-0.00537109
106686683486,221.562,39.6875,-205.125,0.197266,-0.193726,-0.885986,0.372314,0.524559,0.206766,-2.29029,0.924316,0.534668,0.231445
106686703197,123.188,54.1875,-219.375,0.217163,-0.182129,-0.898315,0.335815,0.513243,0.271149,-2.35461,1.30225,0.932617,0.655762
106686725768,11.25,71,-247.062,0.233887,-0.162292,-0.910522,0.299988,0.479662,0.334764,-2.42254,1.18848,1.04639,0.924316
106686743471,-38.25,71.75,-250.188,0.248474,-0.139465,-0.920349,0.267822,0.435566,0.392676,-2.48723,0.382812,0.693359,1.15137
106686763048,-62,85.6875,-236.438,0.263672,-0.120667,-0.927551,0.235901,0.396482,0.44694,-2.55233,-0.57666,0.669434,1.2085
106686785756,-38.5,74,-220.188,0.276794,-0.122986,-0.930786,0.204895,0.397041,0.483493,-2.60919,-0.639648,0.438965,1.05713
106686803515,74.75,39.75,-174.562,0.2948,-0.148132,-0.928162,0.172363,0.448665,0.519192,-2.65335,0.0166016,0.484863,0.805176
106686823339,207.688,55.125,-147.375,0.318298,-0.180115,-0.920654,0.136902,0.519385,0.566603,-2.69205,-0.244141,0.872559,0.719238
106686845541,254,80.0625,-153.375,0.339722,-0.204041,-0.91217,0.104492,0.573698,0.615206,-2.72662,-1.08398,1.01904,0.560547
106686863511,203.188,69.25,-144.938,0.354004,-0.226807,-0.90387,0.0797119,0.625019,0.648245,-2.74951,-1.37207,0.934082,0.504883
106686883249,178.875,38.125,-96.0625,0.366821,-0.247009,-0.894958,0.0592041,0.673212,0.678122,-2.76393,-1.01611,0.805176,0.552734
106686905788,159.688,43.875,-78,0.380798,-0.257874,-0.887024,0.0419312,0.703462,0.712766,-2.77564,-0.850098,0.864746,0.631348
106686923505,94.5,55.3125,-93.5625,0.390991,-0.257202,-0.883362,0.026123,0.701572,0.744135,-2.79883,-0.938477,0.652344,0.682129
106686944498,35.8125,31.9375,-95.9375,0.399292,-0.255005,-0.880615,0.0116577,0.693882,0.771623,-2.82359,-0.901367,0.42041,0.609375
106686965747,29.8125,22,-81.375,0.406738,-0.260925,-0.875488,0,0.708678,0.792612,-2.83442,-0.79541,0.469727,0.61377
106686983486,66.625,32.75,-54.125,0.413452,-0.268799,-0.869934,-0.00671387,0.73268,0.808079,-2.83188,-0.764648,0.491211,0.655762
106687003226,67,42.125,-25.3125,0.417358,-0.268494,-0.868103,-0.0122681,0.731963,0.820091,-2.83974,-0.873535,0.387695,0.672852
106687025733,22.3125,18.875,-26.5,0.418274,-0.265015,-0.86853,-0.0230713,0.713382,0.831282,-2.86879,-0.969238,0.347168,0.717285
106687043420,17.75,-11.125,-51.3125,0.418884,-0.265625,-0.867615,-0.0358276,0.703511,0.841876,-2.8985,-0.941895,0.354004,0.616699
106687070551,40.75,-15.375,-53.125,0.419495,-0.273926,-0.864319,-0.0446777,0.719175,0.847504,-2.909,-0.976074,0.400391,0.551758
106687085676,70.25,-6,-17,0.422852,-0.281128,-0.860046,-0.0507202,0.738238,0.856969,-2.90972,-0.907715,0.399902,0.510254
106687103517,58.1875,15.25,-12.0625,0.427917,-0.282959,-0.856445,-0.0574951,0.743437,0.871839,-2.91637,-1.05908,0.39502,0.526367
106687123198,32.75,16.3125,-27.125,0.431091,-0.282227,-0.854492,-0.06604,0.73665,0.885142,-2.93406,-1.1416,0.336426,0.535156
106687145577,24.625,-2.3125,-33.5625,0.431152,-0.283875,-0.853271,-0.0739746,0.733187,0.891124,-2.95187,-0.998047,0.330566,0.59375
106687163469,36.125,-9.4375,-23.875,0.430725,-0.288086,-0.851624,-0.0789795,0.739901,0.893288,-2.9593,-0.86084,0.355957,0.569824
106687186036,41.0625,-1.3125,-8.0625,0.431641,-0.290405,-0.850098,-0.0820312,0.744845,0.897095,-2.96238,-0.771484,0.360352,0.528809
106687205745,25.125,8.625,-8.125,0.433594,-0.289612,-0.84906,-0.0855103,0.741256,0.904027,-2.96951,-0.831543,0.286133,0.523438
106687223490,11.6875,7.9375,-14,0.434265,-0.288818,-0.84845,-0.0903931,0.734256,0.909373,-2.98228,-0.854492,0.223633,0.554688
106687243240,17.9375,-0.3125,-14.75,0.433838,-0.289124,-0.847961,-0.0960693,0.72823,0.912944,-2.99731,-0.720215,0.272461,0.55127
106687265639,23.5,-2.75,-21.1875,0.434509,-0.289062,-0.847107,-0.100342,0.723978,0.917627,-3.00758,-0.656738,0.314453,0.520996
106687283524,16,6.4375,-21.375,0.435669,-0.288574,-0.846497,-0.101868,0.722174,0.921281,-3.01063,-0.835449,0.345215,0.554199
106687304518,6.5,8.8125,-6.875,0.434387,-0.290466,-0.846497,-0.102051,0.726217,0.918512,-3.01013,-0.811035,0.347168,0.525391
106687325746,14.1875,-2,9.8125,0.431335,-0.291809,-0.847473,-0.103088,0.725321,0.912858,-3.01535,-0.700684,0.357422,0.525879
106687343489,12.6875,-11.4375,3.6875,0.428284,-0.292847,-0.84845,-0.104797,0.722793,0.907771,-3.02271,-0.76416,0.400391,0.51416
106687366038,10.9375,-16.0625,-0.375,0.425354,-0.295166,-0.848938,-0.106079,0.7249,0.902406,-3.02679,-0.793457,0.506836,0.427246
106687385688,11.3125,-18.25,-0.375,0.422729,-0.298096,-0.849243,-0.106018,0.730776,0.896597,-3.02608,-0.822266,0.613281,0.379395
106687403471,6.3125,-17.625,2.3125,0.421082,-0.299683,-0.849609,-0.105164,0.734564,0.892338,-3.02392,-0.782227,0.587402,0.364258
106687424603,-2.6875,-12.3125,1.875,0.419983,-0.300903,-0.849731,-0.105286,0.736841,0.890056,-3.02406,-0.740234,0.558105,0.369141
106687445621,-0.6875,-9.125,-4.125,0.419189,-0.302979,-0.849243,-0.106445,0.740944,0.889074,-3.02517,-0.688965,0.588379,0.377441
106687463487,6.5625,-5.4375,-11.1875,0.418945,-0.30542,-0.848389,-0.107361,0.747093,0.888992,-3.02435,-0.645996,0.641113,0.394531
106687484590,6.4375,1.3125,-14.3125,0.419861,-0.30658,-0.847473,-0.107605,0.751459,0.890872,-3.02196,-0.648438,0.631348,0.422852
106687505752,-0.4375,9.125,-15.6875,0.421631,-0.306458,-0.846619,-0.107727,0.753128,0.894584,-3.01986,-0.671875,0.520996,0.450195
106687539135,-2.8125,13.5,-12.9375,0.42334,-0.30603,-0.845764,-0.109009,0.752561,0.899171,-3.02126,-0.705078,0.42627,0.477539
106687544555,2,11.8125,-13.0625,0.424072,-0.306274,-0.845032,-0.110962,0.752079,0.902177,-3.02482,-0.704102,0.430176,0.473145
106687574564,7.25,5.625,-13.5,0.424072,-0.30658,-0.844727,-0.112488,0.751353,0.903379,-3.02831,-0.681641,0.472168,0.456543
106687583544,3.9375,1.5,-12.8125,0.423828,-0.307007,-0.844666,-0.112793,0.752042,0.903088,-3.02883,-0.703125,0.496582,0.40625
106687604579,-0.5,-0.75,-6.5,0.423462,-0.307861,-0.844604,-0.112427,0.754634,0.901953,-3.02717,-0.700684,0.45166,0.408691
106687625699,1.4375,-0.3125,0.25,0.422791,-0.308777,-0.844604,-0.112549,0.756495,0.900579,-3.02713,-0.720703,0.44043,0.446777
106687643513,4.5625,-1.1875,0.3125,0.421509,-0.310242,-0.844604,-0.113342,0.758553,0.898419,-3.0289,-0.742188,0.462891,0.466797
106687666051,9.125,-4.6875,-1.375,0.419617,-0.312439,-0.844604,-0.114014,0.762212,0.89477,-3.03012,-0.750488,0.514648,0.477539
106687693199,11.5,-6.375,0,0.417969,-0.31488,-0.844482,-0.114197,0.767458,0.891239,-3.02944,-0.792969,0.55127,0.483887
